#
# Results on Mon, 25 Dec 2023 08:39:55 GMT
# USER AGENT: Mozilla/5.0 (Linux; Android 10; K) AppleWebKit/537.36 (KHTML, like Gecko) Chrome/119.0.0.0 Mobile Safari/537.36
# Design number was non-random = 0
#
# Columns below this comment are as follows:
# 1. Results reception time.
# 2. MD5 hash of participant's IP address.
# 3. Controller name.
# 4. Order number of item.
# 5. Inner element number.
# 6. Label.
# 7. Latin Square Group.
# 8. PennElementType.
# 9. PennElementName.
# 10. Parameter.
# 11. Value.
# 12. EventTime.
# 13. id.
# 14. Comments.
1703493595,8a28200c4355090ed15810df590635d1,PennController,1,0,instructions,NULL,PennController,0,_Trial_,Start,1703493338015,undefined,NULL
1703493595,8a28200c4355090ed15810df590635d1,PennController,1,0,instructions,NULL,PennController,0,_Header_,Start,1703493338015,undefined,NULL
1703493595,8a28200c4355090ed15810df590635d1,PennController,1,0,instructions,NULL,PennController,0,_Header_,End,1703493338018,undefined,NULL
1703493595,8a28200c4355090ed15810df590635d1,PennController,1,0,instructions,NULL,TextInput,age,Final,21,1703493361042,undefined,NULL
1703493595,8a28200c4355090ed15810df590635d1,PennController,1,0,instructions,NULL,Scale,linguist,Choice,нет,1703493359833,undefined,NULL
1703493595,8a28200c4355090ed15810df590635d1,PennController,1,0,instructions,NULL,PennController,0,_Trial_,End,1703493361045,undefined,NULL
1703493595,8a28200c4355090ed15810df590635d1,PennController,17,0,experiment,NULL,PennController,17,_Trial_,Start,1703493361060,undefined,NULL
1703493595,8a28200c4355090ed15810df590635d1,PennController,17,0,experiment,NULL,PennController,17,_Header_,Start,1703493361060,undefined,NULL
1703493595,8a28200c4355090ed15810df590635d1,PennController,17,0,experiment,NULL,PennController,17,_Header_,End,1703493361062,undefined,NULL
1703493595,8a28200c4355090ed15810df590635d1,PennController,17,0,experiment,NULL,Button,Далее,Click,Click,1703493365541,undefined,NULL
1703493595,8a28200c4355090ed15810df590635d1,PennController,17,0,experiment,NULL,Selector,answer,Selection,sent_sv,1703493391508,undefined,sent_vs;sent_sv
1703493595,8a28200c4355090ed15810df590635d1,PennController,17,0,experiment,NULL,PennController,17,_Trial_,End,1703493391521,undefined,NULL
1703493595,8a28200c4355090ed15810df590635d1,PennController,15,0,experiment,NULL,PennController,15,_Trial_,Start,1703493391530,undefined,NULL
1703493595,8a28200c4355090ed15810df590635d1,PennController,15,0,experiment,NULL,PennController,15,_Header_,Start,1703493391530,undefined,NULL
1703493595,8a28200c4355090ed15810df590635d1,PennController,15,0,experiment,NULL,PennController,15,_Header_,End,1703493391531,undefined,NULL
1703493595,8a28200c4355090ed15810df590635d1,PennController,15,0,experiment,NULL,Button,Далее,Click,Click,1703493396521,undefined,NULL
1703493595,8a28200c4355090ed15810df590635d1,PennController,15,0,experiment,NULL,Selector,answer,Selection,sent_sv,1703493406226,undefined,sent_sv;sent_vs
1703493595,8a28200c4355090ed15810df590635d1,PennController,15,0,experiment,NULL,PennController,15,_Trial_,End,1703493406231,undefined,NULL
1703493595,8a28200c4355090ed15810df590635d1,PennController,5,0,experiment,NULL,PennController,5,_Trial_,Start,1703493406238,undefined,NULL
1703493595,8a28200c4355090ed15810df590635d1,PennController,5,0,experiment,NULL,PennController,5,_Header_,Start,1703493406238,undefined,NULL
1703493595,8a28200c4355090ed15810df590635d1,PennController,5,0,experiment,NULL,PennController,5,_Header_,End,1703493406238,undefined,NULL
1703493595,8a28200c4355090ed15810df590635d1,PennController,5,0,experiment,NULL,Button,Далее,Click,Click,1703493409080,undefined,NULL
1703493595,8a28200c4355090ed15810df590635d1,PennController,5,0,experiment,NULL,Selector,answer,Selection,sent_sv,1703493423737,undefined,sent_vs;sent_sv
1703493595,8a28200c4355090ed15810df590635d1,PennController,5,0,experiment,NULL,PennController,5,_Trial_,End,1703493423744,undefined,NULL
1703493595,8a28200c4355090ed15810df590635d1,PennController,12,0,experiment,NULL,PennController,12,_Trial_,Start,1703493423750,undefined,NULL
1703493595,8a28200c4355090ed15810df590635d1,PennController,12,0,experiment,NULL,PennController,12,_Header_,Start,1703493423750,undefined,NULL
1703493595,8a28200c4355090ed15810df590635d1,PennController,12,0,experiment,NULL,PennController,12,_Header_,End,1703493423751,undefined,NULL
1703493595,8a28200c4355090ed15810df590635d1,PennController,12,0,experiment,NULL,Button,Далее,Click,Click,1703493429121,undefined,NULL
1703493595,8a28200c4355090ed15810df590635d1,PennController,12,0,experiment,NULL,Selector,answer,Selection,sent_vs,1703493441419,undefined,sent_sv;sent_vs
1703493595,8a28200c4355090ed15810df590635d1,PennController,12,0,experiment,NULL,PennController,12,_Trial_,End,1703493441425,undefined,NULL
1703493595,8a28200c4355090ed15810df590635d1,PennController,3,0,experiment,NULL,PennController,3,_Trial_,Start,1703493441432,undefined,NULL
1703493595,8a28200c4355090ed15810df590635d1,PennController,3,0,experiment,NULL,PennController,3,_Header_,Start,1703493441432,undefined,NULL
1703493595,8a28200c4355090ed15810df590635d1,PennController,3,0,experiment,NULL,PennController,3,_Header_,End,1703493441432,undefined,NULL
1703493595,8a28200c4355090ed15810df590635d1,PennController,3,0,experiment,NULL,Button,Далее,Click,Click,1703493444309,undefined,NULL
1703493595,8a28200c4355090ed15810df590635d1,PennController,3,0,experiment,NULL,Selector,answer,Selection,sent_sv,1703493458075,undefined,sent_vs;sent_sv
1703493595,8a28200c4355090ed15810df590635d1,PennController,3,0,experiment,NULL,PennController,3,_Trial_,End,1703493458081,undefined,NULL
1703493595,8a28200c4355090ed15810df590635d1,PennController,16,0,experiment,NULL,PennController,16,_Trial_,Start,1703493458087,undefined,NULL
1703493595,8a28200c4355090ed15810df590635d1,PennController,16,0,experiment,NULL,PennController,16,_Header_,Start,1703493458087,undefined,NULL
1703493595,8a28200c4355090ed15810df590635d1,PennController,16,0,experiment,NULL,PennController,16,_Header_,End,1703493458087,undefined,NULL
1703493595,8a28200c4355090ed15810df590635d1,PennController,16,0,experiment,NULL,Button,Далее,Click,Click,1703493464410,undefined,NULL
1703493595,8a28200c4355090ed15810df590635d1,PennController,16,0,experiment,NULL,Selector,answer,Selection,sent_vs,1703493474282,undefined,sent_vs;sent_sv
1703493595,8a28200c4355090ed15810df590635d1,PennController,16,0,experiment,NULL,PennController,16,_Trial_,End,1703493474288,undefined,NULL
1703493595,8a28200c4355090ed15810df590635d1,PennController,18,0,experiment,NULL,PennController,18,_Trial_,Start,1703493474294,undefined,NULL
1703493595,8a28200c4355090ed15810df590635d1,PennController,18,0,experiment,NULL,PennController,18,_Header_,Start,1703493474294,undefined,NULL
1703493595,8a28200c4355090ed15810df590635d1,PennController,18,0,experiment,NULL,PennController,18,_Header_,End,1703493474294,undefined,NULL
1703493595,8a28200c4355090ed15810df590635d1,PennController,18,0,experiment,NULL,Button,Далее,Click,Click,1703493476719,undefined,NULL
1703493595,8a28200c4355090ed15810df590635d1,PennController,18,0,experiment,NULL,Selector,answer,Selection,sent_sv,1703493483094,undefined,sent_vs;sent_sv
1703493595,8a28200c4355090ed15810df590635d1,PennController,18,0,experiment,NULL,PennController,18,_Trial_,End,1703493483100,undefined,NULL
1703493595,8a28200c4355090ed15810df590635d1,PennController,7,0,experiment,NULL,PennController,7,_Trial_,Start,1703493483107,undefined,NULL
1703493595,8a28200c4355090ed15810df590635d1,PennController,7,0,experiment,NULL,PennController,7,_Header_,Start,1703493483107,undefined,NULL
1703493595,8a28200c4355090ed15810df590635d1,PennController,7,0,experiment,NULL,PennController,7,_Header_,End,1703493483108,undefined,NULL
1703493595,8a28200c4355090ed15810df590635d1,PennController,7,0,experiment,NULL,Button,Далее,Click,Click,1703493489568,undefined,NULL
1703493595,8a28200c4355090ed15810df590635d1,PennController,7,0,experiment,NULL,Selector,answer,Selection,sent_vs,1703493497314,undefined,sent_sv;sent_vs
1703493595,8a28200c4355090ed15810df590635d1,PennController,7,0,experiment,NULL,PennController,7,_Trial_,End,1703493497318,undefined,NULL
1703493595,8a28200c4355090ed15810df590635d1,PennController,11,0,experiment,NULL,PennController,11,_Trial_,Start,1703493497322,undefined,NULL
1703493595,8a28200c4355090ed15810df590635d1,PennController,11,0,experiment,NULL,PennController,11,_Header_,Start,1703493497322,undefined,NULL
1703493595,8a28200c4355090ed15810df590635d1,PennController,11,0,experiment,NULL,PennController,11,_Header_,End,1703493497322,undefined,NULL
1703493595,8a28200c4355090ed15810df590635d1,PennController,11,0,experiment,NULL,Button,Далее,Click,Click,1703493499240,undefined,NULL
1703493595,8a28200c4355090ed15810df590635d1,PennController,11,0,experiment,NULL,Selector,answer,Selection,sent_sv,1703493505931,undefined,sent_sv;sent_vs
1703493595,8a28200c4355090ed15810df590635d1,PennController,11,0,experiment,NULL,PennController,11,_Trial_,End,1703493505938,undefined,NULL
1703493595,8a28200c4355090ed15810df590635d1,PennController,19,0,experiment,NULL,PennController,19,_Trial_,Start,1703493505944,undefined,NULL
1703493595,8a28200c4355090ed15810df590635d1,PennController,19,0,experiment,NULL,PennController,19,_Header_,Start,1703493505944,undefined,NULL
1703493595,8a28200c4355090ed15810df590635d1,PennController,19,0,experiment,NULL,PennController,19,_Header_,End,1703493505944,undefined,NULL
1703493595,8a28200c4355090ed15810df590635d1,PennController,19,0,experiment,NULL,Button,Далее,Click,Click,1703493507932,undefined,NULL
1703493595,8a28200c4355090ed15810df590635d1,PennController,19,0,experiment,NULL,Selector,answer,Selection,sent_sv,1703493515523,undefined,sent_sv;sent_vs
1703493595,8a28200c4355090ed15810df590635d1,PennController,19,0,experiment,NULL,PennController,19,_Trial_,End,1703493515530,undefined,NULL
1703493595,8a28200c4355090ed15810df590635d1,PennController,10,0,experiment,NULL,PennController,10,_Trial_,Start,1703493515536,undefined,NULL
1703493595,8a28200c4355090ed15810df590635d1,PennController,10,0,experiment,NULL,PennController,10,_Header_,Start,1703493515536,undefined,NULL
1703493595,8a28200c4355090ed15810df590635d1,PennController,10,0,experiment,NULL,PennController,10,_Header_,End,1703493515536,undefined,NULL
1703493595,8a28200c4355090ed15810df590635d1,PennController,10,0,experiment,NULL,Button,Далее,Click,Click,1703493520162,undefined,NULL
1703493595,8a28200c4355090ed15810df590635d1,PennController,10,0,experiment,NULL,Selector,answer,Selection,sent_vs,1703493533300,undefined,sent_vs;sent_sv
1703493595,8a28200c4355090ed15810df590635d1,PennController,10,0,experiment,NULL,PennController,10,_Trial_,End,1703493533304,undefined,NULL
1703493595,8a28200c4355090ed15810df590635d1,PennController,2,0,experiment,NULL,PennController,2,_Trial_,Start,1703493533309,undefined,NULL
1703493595,8a28200c4355090ed15810df590635d1,PennController,2,0,experiment,NULL,PennController,2,_Header_,Start,1703493533309,undefined,NULL
1703493595,8a28200c4355090ed15810df590635d1,PennController,2,0,experiment,NULL,PennController,2,_Header_,End,1703493533310,undefined,NULL
1703493595,8a28200c4355090ed15810df590635d1,PennController,2,0,experiment,NULL,Button,Далее,Click,Click,1703493539049,undefined,NULL
1703493595,8a28200c4355090ed15810df590635d1,PennController,2,0,experiment,NULL,Selector,answer,Selection,sent_vs,1703493547199,undefined,sent_vs;sent_sv
1703493595,8a28200c4355090ed15810df590635d1,PennController,2,0,experiment,NULL,PennController,2,_Trial_,End,1703493547205,undefined,NULL
1703493595,8a28200c4355090ed15810df590635d1,PennController,6,0,experiment,NULL,PennController,6,_Trial_,Start,1703493547212,undefined,NULL
1703493595,8a28200c4355090ed15810df590635d1,PennController,6,0,experiment,NULL,PennController,6,_Header_,Start,1703493547212,undefined,NULL
1703493595,8a28200c4355090ed15810df590635d1,PennController,6,0,experiment,NULL,PennController,6,_Header_,End,1703493547212,undefined,NULL
1703493595,8a28200c4355090ed15810df590635d1,PennController,6,0,experiment,NULL,Button,Далее,Click,Click,1703493551027,undefined,NULL
1703493595,8a28200c4355090ed15810df590635d1,PennController,6,0,experiment,NULL,Selector,answer,Selection,sent_vs,1703493559879,undefined,sent_sv;sent_vs
1703493595,8a28200c4355090ed15810df590635d1,PennController,6,0,experiment,NULL,PennController,6,_Trial_,End,1703493559890,undefined,NULL
1703493595,8a28200c4355090ed15810df590635d1,PennController,4,0,experiment,NULL,PennController,4,_Trial_,Start,1703493559895,undefined,NULL
1703493595,8a28200c4355090ed15810df590635d1,PennController,4,0,experiment,NULL,PennController,4,_Header_,Start,1703493559895,undefined,NULL
1703493595,8a28200c4355090ed15810df590635d1,PennController,4,0,experiment,NULL,PennController,4,_Header_,End,1703493559895,undefined,NULL
1703493595,8a28200c4355090ed15810df590635d1,PennController,4,0,experiment,NULL,Button,Далее,Click,Click,1703493561699,undefined,NULL
1703493595,8a28200c4355090ed15810df590635d1,PennController,4,0,experiment,NULL,Selector,answer,Selection,sent_vs,1703493570016,undefined,sent_sv;sent_vs
1703493595,8a28200c4355090ed15810df590635d1,PennController,4,0,experiment,NULL,PennController,4,_Trial_,End,1703493570023,undefined,NULL
1703493595,8a28200c4355090ed15810df590635d1,PennController,14,0,experiment,NULL,PennController,14,_Trial_,Start,1703493570028,undefined,NULL
1703493595,8a28200c4355090ed15810df590635d1,PennController,14,0,experiment,NULL,PennController,14,_Header_,Start,1703493570028,undefined,NULL
1703493595,8a28200c4355090ed15810df590635d1,PennController,14,0,experiment,NULL,PennController,14,_Header_,End,1703493570029,undefined,NULL
1703493595,8a28200c4355090ed15810df590635d1,PennController,14,0,experiment,NULL,Button,Далее,Click,Click,1703493571885,undefined,NULL
1703493595,8a28200c4355090ed15810df590635d1,PennController,14,0,experiment,NULL,Selector,answer,Selection,sent_vs,1703493576109,undefined,sent_sv;sent_vs
1703493595,8a28200c4355090ed15810df590635d1,PennController,14,0,experiment,NULL,PennController,14,_Trial_,End,1703493576113,undefined,NULL
1703493595,8a28200c4355090ed15810df590635d1,PennController,13,0,experiment,NULL,PennController,13,_Trial_,Start,1703493576119,undefined,NULL
1703493595,8a28200c4355090ed15810df590635d1,PennController,13,0,experiment,NULL,PennController,13,_Header_,Start,1703493576119,undefined,NULL
1703493595,8a28200c4355090ed15810df590635d1,PennController,13,0,experiment,NULL,PennController,13,_Header_,End,1703493576119,undefined,NULL
1703493595,8a28200c4355090ed15810df590635d1,PennController,13,0,experiment,NULL,Button,Далее,Click,Click,1703493578669,undefined,NULL
1703493595,8a28200c4355090ed15810df590635d1,PennController,13,0,experiment,NULL,Selector,answer,Selection,sent_vs,1703493589941,undefined,sent_sv;sent_vs
1703493595,8a28200c4355090ed15810df590635d1,PennController,13,0,experiment,NULL,PennController,13,_Trial_,End,1703493589952,undefined,NULL
1703493595,8a28200c4355090ed15810df590635d1,PennController,9,0,experiment,NULL,PennController,9,_Trial_,Start,1703493589958,undefined,NULL
1703493595,8a28200c4355090ed15810df590635d1,PennController,9,0,experiment,NULL,PennController,9,_Header_,Start,1703493589958,undefined,NULL
1703493595,8a28200c4355090ed15810df590635d1,PennController,9,0,experiment,NULL,PennController,9,_Header_,End,1703493589958,undefined,NULL
1703493595,8a28200c4355090ed15810df590635d1,PennController,9,0,experiment,NULL,Button,Далее,Click,Click,1703493594764,undefined,NULL
1703493595,8a28200c4355090ed15810df590635d1,PennController,9,0,experiment,NULL,Selector,answer,Selection,sent_sv,1703493604784,undefined,sent_vs;sent_sv
1703493595,8a28200c4355090ed15810df590635d1,PennController,9,0,experiment,NULL,PennController,9,_Trial_,End,1703493604790,undefined,NULL
1703493595,8a28200c4355090ed15810df590635d1,PennController,8,0,experiment,NULL,PennController,8,_Trial_,Start,1703493604794,undefined,NULL
1703493595,8a28200c4355090ed15810df590635d1,PennController,8,0,experiment,NULL,PennController,8,_Header_,Start,1703493604794,undefined,NULL
1703493595,8a28200c4355090ed15810df590635d1,PennController,8,0,experiment,NULL,PennController,8,_Header_,End,1703493604795,undefined,NULL
1703493595,8a28200c4355090ed15810df590635d1,PennController,8,0,experiment,NULL,Button,Далее,Click,Click,1703493619404,undefined,NULL
1703493595,8a28200c4355090ed15810df590635d1,PennController,8,0,experiment,NULL,Selector,answer,Selection,sent_vs,1703493623192,undefined,sent_vs;sent_sv
1703493595,8a28200c4355090ed15810df590635d1,PennController,8,0,experiment,NULL,PennController,8,_Trial_,End,1703493623207,undefined,NULL
#
# Results on Mon, 25 Dec 2023 08:40:28 GMT
# USER AGENT: Mozilla/5.0 (X11; CrOS x86_64 14541.0.0) AppleWebKit/537.36 (KHTML, like Gecko) Chrome/120.0.0.0 Safari/537.36
# Design number was non-random = 1
#
# Columns below this comment are as follows:
# 1. Results reception time.
# 2. MD5 hash of participant's IP address.
# 3. Controller name.
# 4. Order number of item.
# 5. Inner element number.
# 6. Label.
# 7. Latin Square Group.
# 8. PennElementType.
# 9. PennElementName.
# 10. Parameter.
# 11. Value.
# 12. EventTime.
# 13. id.
# 14. Comments.
1703493628,01e4e560e10a506fc06f2549c1d0d37d,PennController,1,0,instructions,NULL,PennController,0,_Trial_,Start,1703493604021,undefined,NULL
1703493628,01e4e560e10a506fc06f2549c1d0d37d,PennController,1,0,instructions,NULL,PennController,0,_Header_,Start,1703493604021,undefined,NULL
1703493628,01e4e560e10a506fc06f2549c1d0d37d,PennController,1,0,instructions,NULL,PennController,0,_Header_,End,1703493604021,undefined,NULL
1703493628,01e4e560e10a506fc06f2549c1d0d37d,PennController,1,0,instructions,NULL,TextInput,age,Final,12,1703493606420,undefined,NULL
1703493628,01e4e560e10a506fc06f2549c1d0d37d,PennController,1,0,instructions,NULL,Scale,linguist,Choice,да,1703493605934,undefined,NULL
1703493628,01e4e560e10a506fc06f2549c1d0d37d,PennController,1,0,instructions,NULL,PennController,0,_Trial_,End,1703493606422,undefined,NULL
1703493628,01e4e560e10a506fc06f2549c1d0d37d,PennController,18,0,experiment,NULL,PennController,18,_Trial_,Start,1703493607125,undefined,NULL
1703493628,01e4e560e10a506fc06f2549c1d0d37d,PennController,18,0,experiment,NULL,PennController,18,_Header_,Start,1703493607125,undefined,NULL
1703493628,01e4e560e10a506fc06f2549c1d0d37d,PennController,18,0,experiment,NULL,PennController,18,_Header_,End,1703493607125,undefined,NULL
1703493628,01e4e560e10a506fc06f2549c1d0d37d,PennController,18,0,experiment,NULL,Button,Далее,Click,Click,1703493608672,undefined,NULL
1703493628,01e4e560e10a506fc06f2549c1d0d37d,PennController,18,0,experiment,NULL,Selector,answer,Selection,sent_sv,1703493609038,undefined,sent_sv;sent_vs
1703493628,01e4e560e10a506fc06f2549c1d0d37d,PennController,18,0,experiment,NULL,PennController,18,_Trial_,End,1703493609040,undefined,NULL
1703493628,01e4e560e10a506fc06f2549c1d0d37d,PennController,19,0,experiment,NULL,PennController,19,_Trial_,Start,1703493609043,undefined,NULL
1703493628,01e4e560e10a506fc06f2549c1d0d37d,PennController,19,0,experiment,NULL,PennController,19,_Header_,Start,1703493609043,undefined,NULL
1703493628,01e4e560e10a506fc06f2549c1d0d37d,PennController,19,0,experiment,NULL,PennController,19,_Header_,End,1703493609043,undefined,NULL
1703493628,01e4e560e10a506fc06f2549c1d0d37d,PennController,19,0,experiment,NULL,Button,Далее,Click,Click,1703493609632,undefined,NULL
1703493628,01e4e560e10a506fc06f2549c1d0d37d,PennController,19,0,experiment,NULL,Selector,answer,Selection,sent_vs,1703493611501,undefined,sent_vs;sent_sv
1703493628,01e4e560e10a506fc06f2549c1d0d37d,PennController,19,0,experiment,NULL,PennController,19,_Trial_,End,1703493611503,undefined,NULL
1703493628,01e4e560e10a506fc06f2549c1d0d37d,PennController,15,0,experiment,NULL,PennController,15,_Trial_,Start,1703493611504,undefined,NULL
1703493628,01e4e560e10a506fc06f2549c1d0d37d,PennController,15,0,experiment,NULL,PennController,15,_Header_,Start,1703493611504,undefined,NULL
1703493628,01e4e560e10a506fc06f2549c1d0d37d,PennController,15,0,experiment,NULL,PennController,15,_Header_,End,1703493611504,undefined,NULL
1703493628,01e4e560e10a506fc06f2549c1d0d37d,PennController,15,0,experiment,NULL,Button,Далее,Click,Click,1703493612265,undefined,NULL
1703493628,01e4e560e10a506fc06f2549c1d0d37d,PennController,15,0,experiment,NULL,Selector,answer,Selection,sent_sv,1703493612658,undefined,sent_sv;sent_vs
1703493628,01e4e560e10a506fc06f2549c1d0d37d,PennController,15,0,experiment,NULL,PennController,15,_Trial_,End,1703493612660,undefined,NULL
1703493628,01e4e560e10a506fc06f2549c1d0d37d,PennController,6,0,experiment,NULL,PennController,6,_Trial_,Start,1703493612662,undefined,NULL
1703493628,01e4e560e10a506fc06f2549c1d0d37d,PennController,6,0,experiment,NULL,PennController,6,_Header_,Start,1703493612662,undefined,NULL
1703493628,01e4e560e10a506fc06f2549c1d0d37d,PennController,6,0,experiment,NULL,PennController,6,_Header_,End,1703493612662,undefined,NULL
1703493628,01e4e560e10a506fc06f2549c1d0d37d,PennController,6,0,experiment,NULL,Button,Далее,Click,Click,1703493613184,undefined,NULL
1703493628,01e4e560e10a506fc06f2549c1d0d37d,PennController,6,0,experiment,NULL,Selector,answer,Selection,sent_sv,1703493613299,undefined,sent_sv;sent_vs
1703493628,01e4e560e10a506fc06f2549c1d0d37d,PennController,6,0,experiment,NULL,PennController,6,_Trial_,End,1703493613301,undefined,NULL
1703493628,01e4e560e10a506fc06f2549c1d0d37d,PennController,4,0,experiment,NULL,PennController,4,_Trial_,Start,1703493613302,undefined,NULL
1703493628,01e4e560e10a506fc06f2549c1d0d37d,PennController,4,0,experiment,NULL,PennController,4,_Header_,Start,1703493613302,undefined,NULL
1703493628,01e4e560e10a506fc06f2549c1d0d37d,PennController,4,0,experiment,NULL,PennController,4,_Header_,End,1703493613303,undefined,NULL
1703493628,01e4e560e10a506fc06f2549c1d0d37d,PennController,4,0,experiment,NULL,Button,Далее,Click,Click,1703493613748,undefined,NULL
1703493628,01e4e560e10a506fc06f2549c1d0d37d,PennController,4,0,experiment,NULL,Selector,answer,Selection,sent_sv,1703493613859,undefined,sent_sv;sent_vs
1703493628,01e4e560e10a506fc06f2549c1d0d37d,PennController,4,0,experiment,NULL,PennController,4,_Trial_,End,1703493613861,undefined,NULL
1703493628,01e4e560e10a506fc06f2549c1d0d37d,PennController,16,0,experiment,NULL,PennController,16,_Trial_,Start,1703493613862,undefined,NULL
1703493628,01e4e560e10a506fc06f2549c1d0d37d,PennController,16,0,experiment,NULL,PennController,16,_Header_,Start,1703493613862,undefined,NULL
1703493628,01e4e560e10a506fc06f2549c1d0d37d,PennController,16,0,experiment,NULL,PennController,16,_Header_,End,1703493613862,undefined,NULL
1703493628,01e4e560e10a506fc06f2549c1d0d37d,PennController,16,0,experiment,NULL,Button,Далее,Click,Click,1703493614310,undefined,NULL
1703493628,01e4e560e10a506fc06f2549c1d0d37d,PennController,16,0,experiment,NULL,Selector,answer,Selection,sent_vs,1703493614435,undefined,sent_vs;sent_sv
1703493628,01e4e560e10a506fc06f2549c1d0d37d,PennController,16,0,experiment,NULL,PennController,16,_Trial_,End,1703493614436,undefined,NULL
1703493628,01e4e560e10a506fc06f2549c1d0d37d,PennController,11,0,experiment,NULL,PennController,11,_Trial_,Start,1703493614438,undefined,NULL
1703493628,01e4e560e10a506fc06f2549c1d0d37d,PennController,11,0,experiment,NULL,PennController,11,_Header_,Start,1703493614438,undefined,NULL
1703493628,01e4e560e10a506fc06f2549c1d0d37d,PennController,11,0,experiment,NULL,PennController,11,_Header_,End,1703493614438,undefined,NULL
1703493628,01e4e560e10a506fc06f2549c1d0d37d,PennController,11,0,experiment,NULL,Button,Далее,Click,Click,1703493614883,undefined,NULL
1703493628,01e4e560e10a506fc06f2549c1d0d37d,PennController,11,0,experiment,NULL,Selector,answer,Selection,sent_sv,1703493614994,undefined,sent_sv;sent_vs
1703493628,01e4e560e10a506fc06f2549c1d0d37d,PennController,11,0,experiment,NULL,PennController,11,_Trial_,End,1703493614995,undefined,NULL
1703493628,01e4e560e10a506fc06f2549c1d0d37d,PennController,12,0,experiment,NULL,PennController,12,_Trial_,Start,1703493614997,undefined,NULL
1703493628,01e4e560e10a506fc06f2549c1d0d37d,PennController,12,0,experiment,NULL,PennController,12,_Header_,Start,1703493614997,undefined,NULL
1703493628,01e4e560e10a506fc06f2549c1d0d37d,PennController,12,0,experiment,NULL,PennController,12,_Header_,End,1703493614997,undefined,NULL
1703493628,01e4e560e10a506fc06f2549c1d0d37d,PennController,12,0,experiment,NULL,Button,Далее,Click,Click,1703493615502,undefined,NULL
1703493628,01e4e560e10a506fc06f2549c1d0d37d,PennController,12,0,experiment,NULL,Selector,answer,Selection,sent_sv,1703493615603,undefined,sent_sv;sent_vs
1703493628,01e4e560e10a506fc06f2549c1d0d37d,PennController,12,0,experiment,NULL,PennController,12,_Trial_,End,1703493615604,undefined,NULL
1703493628,01e4e560e10a506fc06f2549c1d0d37d,PennController,9,0,experiment,NULL,PennController,9,_Trial_,Start,1703493615606,undefined,NULL
1703493628,01e4e560e10a506fc06f2549c1d0d37d,PennController,9,0,experiment,NULL,PennController,9,_Header_,Start,1703493615606,undefined,NULL
1703493628,01e4e560e10a506fc06f2549c1d0d37d,PennController,9,0,experiment,NULL,PennController,9,_Header_,End,1703493615606,undefined,NULL
1703493628,01e4e560e10a506fc06f2549c1d0d37d,PennController,9,0,experiment,NULL,Button,Далее,Click,Click,1703493617162,undefined,NULL
1703493628,01e4e560e10a506fc06f2549c1d0d37d,PennController,9,0,experiment,NULL,Selector,answer,Selection,sent_sv,1703493617265,undefined,sent_sv;sent_vs
1703493628,01e4e560e10a506fc06f2549c1d0d37d,PennController,9,0,experiment,NULL,PennController,9,_Trial_,End,1703493617267,undefined,NULL
1703493628,01e4e560e10a506fc06f2549c1d0d37d,PennController,14,0,experiment,NULL,PennController,14,_Trial_,Start,1703493617268,undefined,NULL
1703493628,01e4e560e10a506fc06f2549c1d0d37d,PennController,14,0,experiment,NULL,PennController,14,_Header_,Start,1703493617268,undefined,NULL
1703493628,01e4e560e10a506fc06f2549c1d0d37d,PennController,14,0,experiment,NULL,PennController,14,_Header_,End,1703493617268,undefined,NULL
1703493628,01e4e560e10a506fc06f2549c1d0d37d,PennController,14,0,experiment,NULL,Button,Далее,Click,Click,1703493617723,undefined,NULL
1703493628,01e4e560e10a506fc06f2549c1d0d37d,PennController,14,0,experiment,NULL,Selector,answer,Selection,sent_vs,1703493617807,undefined,sent_vs;sent_sv
1703493628,01e4e560e10a506fc06f2549c1d0d37d,PennController,14,0,experiment,NULL,PennController,14,_Trial_,End,1703493617809,undefined,NULL
1703493628,01e4e560e10a506fc06f2549c1d0d37d,PennController,7,0,experiment,NULL,PennController,7,_Trial_,Start,1703493617811,undefined,NULL
1703493628,01e4e560e10a506fc06f2549c1d0d37d,PennController,7,0,experiment,NULL,PennController,7,_Header_,Start,1703493617811,undefined,NULL
1703493628,01e4e560e10a506fc06f2549c1d0d37d,PennController,7,0,experiment,NULL,PennController,7,_Header_,End,1703493617811,undefined,NULL
1703493628,01e4e560e10a506fc06f2549c1d0d37d,PennController,7,0,experiment,NULL,Button,Далее,Click,Click,1703493618300,undefined,NULL
1703493628,01e4e560e10a506fc06f2549c1d0d37d,PennController,7,0,experiment,NULL,Selector,answer,Selection,sent_sv,1703493618387,undefined,sent_sv;sent_vs
1703493628,01e4e560e10a506fc06f2549c1d0d37d,PennController,7,0,experiment,NULL,PennController,7,_Trial_,End,1703493618389,undefined,NULL
1703493628,01e4e560e10a506fc06f2549c1d0d37d,PennController,3,0,experiment,NULL,PennController,3,_Trial_,Start,1703493618391,undefined,NULL
1703493628,01e4e560e10a506fc06f2549c1d0d37d,PennController,3,0,experiment,NULL,PennController,3,_Header_,Start,1703493618391,undefined,NULL
1703493628,01e4e560e10a506fc06f2549c1d0d37d,PennController,3,0,experiment,NULL,PennController,3,_Header_,End,1703493618391,undefined,NULL
1703493628,01e4e560e10a506fc06f2549c1d0d37d,PennController,3,0,experiment,NULL,Button,Далее,Click,Click,1703493618861,undefined,NULL
1703493628,01e4e560e10a506fc06f2549c1d0d37d,PennController,3,0,experiment,NULL,Selector,answer,Selection,sent_vs,1703493618946,undefined,sent_vs;sent_sv
1703493628,01e4e560e10a506fc06f2549c1d0d37d,PennController,3,0,experiment,NULL,PennController,3,_Trial_,End,1703493618948,undefined,NULL
1703493628,01e4e560e10a506fc06f2549c1d0d37d,PennController,10,0,experiment,NULL,PennController,10,_Trial_,Start,1703493618949,undefined,NULL
1703493628,01e4e560e10a506fc06f2549c1d0d37d,PennController,10,0,experiment,NULL,PennController,10,_Header_,Start,1703493618949,undefined,NULL
1703493628,01e4e560e10a506fc06f2549c1d0d37d,PennController,10,0,experiment,NULL,PennController,10,_Header_,End,1703493618949,undefined,NULL
1703493628,01e4e560e10a506fc06f2549c1d0d37d,PennController,10,0,experiment,NULL,Button,Далее,Click,Click,1703493619908,undefined,NULL
1703493628,01e4e560e10a506fc06f2549c1d0d37d,PennController,10,0,experiment,NULL,Selector,answer,Selection,sent_vs,1703493620067,undefined,sent_vs;sent_sv
1703493628,01e4e560e10a506fc06f2549c1d0d37d,PennController,10,0,experiment,NULL,PennController,10,_Trial_,End,1703493620068,undefined,NULL
1703493628,01e4e560e10a506fc06f2549c1d0d37d,PennController,2,0,experiment,NULL,PennController,2,_Trial_,Start,1703493620070,undefined,NULL
1703493628,01e4e560e10a506fc06f2549c1d0d37d,PennController,2,0,experiment,NULL,PennController,2,_Header_,Start,1703493620070,undefined,NULL
1703493628,01e4e560e10a506fc06f2549c1d0d37d,PennController,2,0,experiment,NULL,PennController,2,_Header_,End,1703493620070,undefined,NULL
1703493628,01e4e560e10a506fc06f2549c1d0d37d,PennController,2,0,experiment,NULL,Button,Далее,Click,Click,1703493620542,undefined,NULL
1703493628,01e4e560e10a506fc06f2549c1d0d37d,PennController,2,0,experiment,NULL,Selector,answer,Selection,sent_sv,1703493620668,undefined,sent_sv;sent_vs
1703493628,01e4e560e10a506fc06f2549c1d0d37d,PennController,2,0,experiment,NULL,PennController,2,_Trial_,End,1703493620670,undefined,NULL
1703493628,01e4e560e10a506fc06f2549c1d0d37d,PennController,17,0,experiment,NULL,PennController,17,_Trial_,Start,1703493620671,undefined,NULL
1703493628,01e4e560e10a506fc06f2549c1d0d37d,PennController,17,0,experiment,NULL,PennController,17,_Header_,Start,1703493620671,undefined,NULL
1703493628,01e4e560e10a506fc06f2549c1d0d37d,PennController,17,0,experiment,NULL,PennController,17,_Header_,End,1703493620671,undefined,NULL
1703493628,01e4e560e10a506fc06f2549c1d0d37d,PennController,17,0,experiment,NULL,Button,Далее,Click,Click,1703493621150,undefined,NULL
1703493628,01e4e560e10a506fc06f2549c1d0d37d,PennController,17,0,experiment,NULL,Selector,answer,Selection,sent_vs,1703493621258,undefined,sent_vs;sent_sv
1703493628,01e4e560e10a506fc06f2549c1d0d37d,PennController,17,0,experiment,NULL,PennController,17,_Trial_,End,1703493621260,undefined,NULL
1703493628,01e4e560e10a506fc06f2549c1d0d37d,PennController,8,0,experiment,NULL,PennController,8,_Trial_,Start,1703493621261,undefined,NULL
1703493628,01e4e560e10a506fc06f2549c1d0d37d,PennController,8,0,experiment,NULL,PennController,8,_Header_,Start,1703493621261,undefined,NULL
1703493628,01e4e560e10a506fc06f2549c1d0d37d,PennController,8,0,experiment,NULL,PennController,8,_Header_,End,1703493621261,undefined,NULL
1703493628,01e4e560e10a506fc06f2549c1d0d37d,PennController,8,0,experiment,NULL,Button,Далее,Click,Click,1703493623302,undefined,NULL
1703493628,01e4e560e10a506fc06f2549c1d0d37d,PennController,8,0,experiment,NULL,Selector,answer,Selection,sent_vs,1703493623615,undefined,sent_vs;sent_sv
1703493628,01e4e560e10a506fc06f2549c1d0d37d,PennController,8,0,experiment,NULL,PennController,8,_Trial_,End,1703493623616,undefined,NULL
1703493628,01e4e560e10a506fc06f2549c1d0d37d,PennController,5,0,experiment,NULL,PennController,5,_Trial_,Start,1703493623617,undefined,NULL
1703493628,01e4e560e10a506fc06f2549c1d0d37d,PennController,5,0,experiment,NULL,PennController,5,_Header_,Start,1703493623617,undefined,NULL
1703493628,01e4e560e10a506fc06f2549c1d0d37d,PennController,5,0,experiment,NULL,PennController,5,_Header_,End,1703493623618,undefined,NULL
1703493628,01e4e560e10a506fc06f2549c1d0d37d,PennController,5,0,experiment,NULL,Button,Далее,Click,Click,1703493624440,undefined,NULL
1703493628,01e4e560e10a506fc06f2549c1d0d37d,PennController,5,0,experiment,NULL,Selector,answer,Selection,sent_vs,1703493624802,undefined,sent_vs;sent_sv
1703493628,01e4e560e10a506fc06f2549c1d0d37d,PennController,5,0,experiment,NULL,PennController,5,_Trial_,End,1703493624804,undefined,NULL
1703493628,01e4e560e10a506fc06f2549c1d0d37d,PennController,13,0,experiment,NULL,PennController,13,_Trial_,Start,1703493624805,undefined,NULL
1703493628,01e4e560e10a506fc06f2549c1d0d37d,PennController,13,0,experiment,NULL,PennController,13,_Header_,Start,1703493624805,undefined,NULL
1703493628,01e4e560e10a506fc06f2549c1d0d37d,PennController,13,0,experiment,NULL,PennController,13,_Header_,End,1703493624805,undefined,NULL
1703493628,01e4e560e10a506fc06f2549c1d0d37d,PennController,13,0,experiment,NULL,Button,Далее,Click,Click,1703493626918,undefined,NULL
1703493628,01e4e560e10a506fc06f2549c1d0d37d,PennController,13,0,experiment,NULL,Selector,answer,Selection,sent_vs,1703493627369,undefined,sent_vs;sent_sv
1703493628,01e4e560e10a506fc06f2549c1d0d37d,PennController,13,0,experiment,NULL,PennController,13,_Trial_,End,1703493627370,undefined,NULL
#
# Results on Mon, 25 Dec 2023 08:53:19 GMT
# USER AGENT: Mozilla/5.0 (Linux; Android 10; K) AppleWebKit/537.36 (KHTML, like Gecko) Chrome/120.0.0.0 Mobile Safari/537.36
# Design number was non-random = 2
#
# Columns below this comment are as follows:
# 1. Results reception time.
# 2. MD5 hash of participant's IP address.
# 3. Controller name.
# 4. Order number of item.
# 5. Inner element number.
# 6. Label.
# 7. Latin Square Group.
# 8. PennElementType.
# 9. PennElementName.
# 10. Parameter.
# 11. Value.
# 12. EventTime.
# 13. id.
# 14. Comments.
1703494399,6f30d4a8461051d69607a7824c4af8d7,PennController,1,0,instructions,NULL,PennController,0,_Trial_,Start,1703493983693,undefined,NULL
1703494399,6f30d4a8461051d69607a7824c4af8d7,PennController,1,0,instructions,NULL,PennController,0,_Header_,Start,1703493983693,undefined,NULL
1703494399,6f30d4a8461051d69607a7824c4af8d7,PennController,1,0,instructions,NULL,PennController,0,_Header_,End,1703493983694,undefined,NULL
1703494399,6f30d4a8461051d69607a7824c4af8d7,PennController,1,0,instructions,NULL,TextInput,age,Final,42,1703494007584,undefined,NULL
1703494399,6f30d4a8461051d69607a7824c4af8d7,PennController,1,0,instructions,NULL,Scale,linguist,Choice,нет,1703494006013,undefined,NULL
1703494399,6f30d4a8461051d69607a7824c4af8d7,PennController,1,0,instructions,NULL,PennController,0,_Trial_,End,1703494007586,undefined,NULL
1703494399,6f30d4a8461051d69607a7824c4af8d7,PennController,2,0,experiment,NULL,PennController,2,_Trial_,Start,1703494007597,undefined,NULL
1703494399,6f30d4a8461051d69607a7824c4af8d7,PennController,2,0,experiment,NULL,PennController,2,_Header_,Start,1703494007597,undefined,NULL
1703494399,6f30d4a8461051d69607a7824c4af8d7,PennController,2,0,experiment,NULL,PennController,2,_Header_,End,1703494007597,undefined,NULL
1703494399,6f30d4a8461051d69607a7824c4af8d7,PennController,2,0,experiment,NULL,Button,Далее,Click,Click,1703494012722,undefined,NULL
1703494399,6f30d4a8461051d69607a7824c4af8d7,PennController,2,0,experiment,NULL,Selector,answer,Selection,sent_sv,1703494026923,undefined,sent_vs;sent_sv
1703494399,6f30d4a8461051d69607a7824c4af8d7,PennController,2,0,experiment,NULL,PennController,2,_Trial_,End,1703494026931,undefined,NULL
1703494399,6f30d4a8461051d69607a7824c4af8d7,PennController,19,0,experiment,NULL,PennController,19,_Trial_,Start,1703494026937,undefined,NULL
1703494399,6f30d4a8461051d69607a7824c4af8d7,PennController,19,0,experiment,NULL,PennController,19,_Header_,Start,1703494026937,undefined,NULL
1703494399,6f30d4a8461051d69607a7824c4af8d7,PennController,19,0,experiment,NULL,PennController,19,_Header_,End,1703494026938,undefined,NULL
1703494399,6f30d4a8461051d69607a7824c4af8d7,PennController,19,0,experiment,NULL,Button,Далее,Click,Click,1703494032076,undefined,NULL
1703494399,6f30d4a8461051d69607a7824c4af8d7,PennController,19,0,experiment,NULL,Selector,answer,Selection,sent_vs,1703494049122,undefined,sent_sv;sent_vs
1703494399,6f30d4a8461051d69607a7824c4af8d7,PennController,19,0,experiment,NULL,PennController,19,_Trial_,End,1703494049129,undefined,NULL
1703494399,6f30d4a8461051d69607a7824c4af8d7,PennController,15,0,experiment,NULL,PennController,15,_Trial_,Start,1703494049134,undefined,NULL
1703494399,6f30d4a8461051d69607a7824c4af8d7,PennController,15,0,experiment,NULL,PennController,15,_Header_,Start,1703494049134,undefined,NULL
1703494399,6f30d4a8461051d69607a7824c4af8d7,PennController,15,0,experiment,NULL,PennController,15,_Header_,End,1703494049134,undefined,NULL
1703494399,6f30d4a8461051d69607a7824c4af8d7,PennController,15,0,experiment,NULL,Button,Далее,Click,Click,1703494057874,undefined,NULL
1703494399,6f30d4a8461051d69607a7824c4af8d7,PennController,15,0,experiment,NULL,Selector,answer,Selection,sent_sv,1703494087459,undefined,sent_sv;sent_vs
1703494399,6f30d4a8461051d69607a7824c4af8d7,PennController,15,0,experiment,NULL,PennController,15,_Trial_,End,1703494087465,undefined,NULL
1703494399,6f30d4a8461051d69607a7824c4af8d7,PennController,9,0,experiment,NULL,PennController,9,_Trial_,Start,1703494087470,undefined,NULL
1703494399,6f30d4a8461051d69607a7824c4af8d7,PennController,9,0,experiment,NULL,PennController,9,_Header_,Start,1703494087470,undefined,NULL
1703494399,6f30d4a8461051d69607a7824c4af8d7,PennController,9,0,experiment,NULL,PennController,9,_Header_,End,1703494087471,undefined,NULL
1703494399,6f30d4a8461051d69607a7824c4af8d7,PennController,9,0,experiment,NULL,Button,Далее,Click,Click,1703494138818,undefined,NULL
1703494399,6f30d4a8461051d69607a7824c4af8d7,PennController,9,0,experiment,NULL,Selector,answer,Selection,sent_sv,1703494147274,undefined,sent_sv;sent_vs
1703494399,6f30d4a8461051d69607a7824c4af8d7,PennController,9,0,experiment,NULL,PennController,9,_Trial_,End,1703494147280,undefined,NULL
1703494399,6f30d4a8461051d69607a7824c4af8d7,PennController,7,0,experiment,NULL,PennController,7,_Trial_,Start,1703494147286,undefined,NULL
1703494399,6f30d4a8461051d69607a7824c4af8d7,PennController,7,0,experiment,NULL,PennController,7,_Header_,Start,1703494147286,undefined,NULL
1703494399,6f30d4a8461051d69607a7824c4af8d7,PennController,7,0,experiment,NULL,PennController,7,_Header_,End,1703494147286,undefined,NULL
1703494399,6f30d4a8461051d69607a7824c4af8d7,PennController,7,0,experiment,NULL,Button,Далее,Click,Click,1703494151070,undefined,NULL
1703494399,6f30d4a8461051d69607a7824c4af8d7,PennController,7,0,experiment,NULL,Selector,answer,Selection,sent_vs,1703494162558,undefined,sent_vs;sent_sv
1703494399,6f30d4a8461051d69607a7824c4af8d7,PennController,7,0,experiment,NULL,PennController,7,_Trial_,End,1703494162564,undefined,NULL
1703494399,6f30d4a8461051d69607a7824c4af8d7,PennController,5,0,experiment,NULL,PennController,5,_Trial_,Start,1703494162570,undefined,NULL
1703494399,6f30d4a8461051d69607a7824c4af8d7,PennController,5,0,experiment,NULL,PennController,5,_Header_,Start,1703494162570,undefined,NULL
1703494399,6f30d4a8461051d69607a7824c4af8d7,PennController,5,0,experiment,NULL,PennController,5,_Header_,End,1703494162570,undefined,NULL
1703494399,6f30d4a8461051d69607a7824c4af8d7,PennController,5,0,experiment,NULL,Button,Далее,Click,Click,1703494165109,undefined,NULL
1703494399,6f30d4a8461051d69607a7824c4af8d7,PennController,5,0,experiment,NULL,Selector,answer,Selection,sent_vs,1703494174640,undefined,sent_vs;sent_sv
1703494399,6f30d4a8461051d69607a7824c4af8d7,PennController,5,0,experiment,NULL,PennController,5,_Trial_,End,1703494174646,undefined,NULL
1703494399,6f30d4a8461051d69607a7824c4af8d7,PennController,3,0,experiment,NULL,PennController,3,_Trial_,Start,1703494174651,undefined,NULL
1703494399,6f30d4a8461051d69607a7824c4af8d7,PennController,3,0,experiment,NULL,PennController,3,_Header_,Start,1703494174651,undefined,NULL
1703494399,6f30d4a8461051d69607a7824c4af8d7,PennController,3,0,experiment,NULL,PennController,3,_Header_,End,1703494174652,undefined,NULL
1703494399,6f30d4a8461051d69607a7824c4af8d7,PennController,3,0,experiment,NULL,Button,Далее,Click,Click,1703494178218,undefined,NULL
1703494399,6f30d4a8461051d69607a7824c4af8d7,PennController,3,0,experiment,NULL,Selector,answer,Selection,sent_vs,1703494186101,undefined,sent_vs;sent_sv
1703494399,6f30d4a8461051d69607a7824c4af8d7,PennController,3,0,experiment,NULL,PennController,3,_Trial_,End,1703494186106,undefined,NULL
1703494399,6f30d4a8461051d69607a7824c4af8d7,PennController,10,0,experiment,NULL,PennController,10,_Trial_,Start,1703494186113,undefined,NULL
1703494399,6f30d4a8461051d69607a7824c4af8d7,PennController,10,0,experiment,NULL,PennController,10,_Header_,Start,1703494186113,undefined,NULL
1703494399,6f30d4a8461051d69607a7824c4af8d7,PennController,10,0,experiment,NULL,PennController,10,_Header_,End,1703494186114,undefined,NULL
1703494399,6f30d4a8461051d69607a7824c4af8d7,PennController,10,0,experiment,NULL,Button,Далее,Click,Click,1703494189051,undefined,NULL
1703494399,6f30d4a8461051d69607a7824c4af8d7,PennController,10,0,experiment,NULL,Selector,answer,Selection,sent_vs,1703494199639,undefined,sent_vs;sent_sv
1703494399,6f30d4a8461051d69607a7824c4af8d7,PennController,10,0,experiment,NULL,PennController,10,_Trial_,End,1703494199645,undefined,NULL
1703494399,6f30d4a8461051d69607a7824c4af8d7,PennController,14,0,experiment,NULL,PennController,14,_Trial_,Start,1703494199677,undefined,NULL
1703494399,6f30d4a8461051d69607a7824c4af8d7,PennController,14,0,experiment,NULL,PennController,14,_Header_,Start,1703494199677,undefined,NULL
1703494399,6f30d4a8461051d69607a7824c4af8d7,PennController,14,0,experiment,NULL,PennController,14,_Header_,End,1703494199677,undefined,NULL
1703494399,6f30d4a8461051d69607a7824c4af8d7,PennController,14,0,experiment,NULL,Button,Далее,Click,Click,1703494202045,undefined,NULL
1703494399,6f30d4a8461051d69607a7824c4af8d7,PennController,14,0,experiment,NULL,Selector,answer,Selection,sent_vs,1703494208128,undefined,sent_vs;sent_sv
1703494399,6f30d4a8461051d69607a7824c4af8d7,PennController,14,0,experiment,NULL,PennController,14,_Trial_,End,1703494208135,undefined,NULL
1703494399,6f30d4a8461051d69607a7824c4af8d7,PennController,17,0,experiment,NULL,PennController,17,_Trial_,Start,1703494208141,undefined,NULL
1703494399,6f30d4a8461051d69607a7824c4af8d7,PennController,17,0,experiment,NULL,PennController,17,_Header_,Start,1703494208141,undefined,NULL
1703494399,6f30d4a8461051d69607a7824c4af8d7,PennController,17,0,experiment,NULL,PennController,17,_Header_,End,1703494208142,undefined,NULL
1703494399,6f30d4a8461051d69607a7824c4af8d7,PennController,17,0,experiment,NULL,Button,Далее,Click,Click,1703494213049,undefined,NULL
1703494399,6f30d4a8461051d69607a7824c4af8d7,PennController,17,0,experiment,NULL,Selector,answer,Selection,sent_sv,1703494269715,undefined,sent_vs;sent_sv
1703494399,6f30d4a8461051d69607a7824c4af8d7,PennController,17,0,experiment,NULL,PennController,17,_Trial_,End,1703494269721,undefined,NULL
1703494399,6f30d4a8461051d69607a7824c4af8d7,PennController,6,0,experiment,NULL,PennController,6,_Trial_,Start,1703494269726,undefined,NULL
1703494399,6f30d4a8461051d69607a7824c4af8d7,PennController,6,0,experiment,NULL,PennController,6,_Header_,Start,1703494269726,undefined,NULL
1703494399,6f30d4a8461051d69607a7824c4af8d7,PennController,6,0,experiment,NULL,PennController,6,_Header_,End,1703494269726,undefined,NULL
1703494399,6f30d4a8461051d69607a7824c4af8d7,PennController,6,0,experiment,NULL,Button,Далее,Click,Click,1703494277587,undefined,NULL
1703494399,6f30d4a8461051d69607a7824c4af8d7,PennController,6,0,experiment,NULL,Selector,answer,Selection,sent_vs,1703494290319,undefined,sent_vs;sent_sv
1703494399,6f30d4a8461051d69607a7824c4af8d7,PennController,6,0,experiment,NULL,PennController,6,_Trial_,End,1703494290321,undefined,NULL
1703494399,6f30d4a8461051d69607a7824c4af8d7,PennController,16,0,experiment,NULL,PennController,16,_Trial_,Start,1703494290323,undefined,NULL
1703494399,6f30d4a8461051d69607a7824c4af8d7,PennController,16,0,experiment,NULL,PennController,16,_Header_,Start,1703494290323,undefined,NULL
1703494399,6f30d4a8461051d69607a7824c4af8d7,PennController,16,0,experiment,NULL,PennController,16,_Header_,End,1703494290324,undefined,NULL
1703494399,6f30d4a8461051d69607a7824c4af8d7,PennController,16,0,experiment,NULL,Button,Далее,Click,Click,1703494297026,undefined,NULL
1703494399,6f30d4a8461051d69607a7824c4af8d7,PennController,16,0,experiment,NULL,Button,Далее,Click,Click,1703494298495,undefined,NULL
1703494399,6f30d4a8461051d69607a7824c4af8d7,PennController,16,0,experiment,NULL,Selector,answer,Selection,sent_vs,1703494309087,undefined,sent_sv;sent_vs
1703494399,6f30d4a8461051d69607a7824c4af8d7,PennController,16,0,experiment,NULL,PennController,16,_Trial_,End,1703494309092,undefined,NULL
1703494399,6f30d4a8461051d69607a7824c4af8d7,PennController,12,0,experiment,NULL,PennController,12,_Trial_,Start,1703494309098,undefined,NULL
1703494399,6f30d4a8461051d69607a7824c4af8d7,PennController,12,0,experiment,NULL,PennController,12,_Header_,Start,1703494309098,undefined,NULL
1703494399,6f30d4a8461051d69607a7824c4af8d7,PennController,12,0,experiment,NULL,PennController,12,_Header_,End,1703494309098,undefined,NULL
1703494399,6f30d4a8461051d69607a7824c4af8d7,PennController,12,0,experiment,NULL,Button,Далее,Click,Click,1703494318427,undefined,NULL
1703494399,6f30d4a8461051d69607a7824c4af8d7,PennController,12,0,experiment,NULL,Selector,answer,Selection,sent_sv,1703494335344,undefined,sent_sv;sent_vs
1703494399,6f30d4a8461051d69607a7824c4af8d7,PennController,12,0,experiment,NULL,PennController,12,_Trial_,End,1703494335350,undefined,NULL
1703494399,6f30d4a8461051d69607a7824c4af8d7,PennController,11,0,experiment,NULL,PennController,11,_Trial_,Start,1703494335356,undefined,NULL
1703494399,6f30d4a8461051d69607a7824c4af8d7,PennController,11,0,experiment,NULL,PennController,11,_Header_,Start,1703494335356,undefined,NULL
1703494399,6f30d4a8461051d69607a7824c4af8d7,PennController,11,0,experiment,NULL,PennController,11,_Header_,End,1703494335356,undefined,NULL
1703494399,6f30d4a8461051d69607a7824c4af8d7,PennController,11,0,experiment,NULL,Button,Далее,Click,Click,1703494338429,undefined,NULL
1703494399,6f30d4a8461051d69607a7824c4af8d7,PennController,11,0,experiment,NULL,Button,Далее,Click,Click,1703494339853,undefined,NULL
1703494399,6f30d4a8461051d69607a7824c4af8d7,PennController,11,0,experiment,NULL,Selector,answer,Selection,sent_sv,1703494349504,undefined,sent_vs;sent_sv
1703494399,6f30d4a8461051d69607a7824c4af8d7,PennController,11,0,experiment,NULL,PennController,11,_Trial_,End,1703494349509,undefined,NULL
1703494399,6f30d4a8461051d69607a7824c4af8d7,PennController,18,0,experiment,NULL,PennController,18,_Trial_,Start,1703494349513,undefined,NULL
1703494399,6f30d4a8461051d69607a7824c4af8d7,PennController,18,0,experiment,NULL,PennController,18,_Header_,Start,1703494349513,undefined,NULL
1703494399,6f30d4a8461051d69607a7824c4af8d7,PennController,18,0,experiment,NULL,PennController,18,_Header_,End,1703494349514,undefined,NULL
1703494399,6f30d4a8461051d69607a7824c4af8d7,PennController,18,0,experiment,NULL,Button,Далее,Click,Click,1703494353128,undefined,NULL
1703494399,6f30d4a8461051d69607a7824c4af8d7,PennController,18,0,experiment,NULL,Selector,answer,Selection,sent_vs,1703494359323,undefined,sent_vs;sent_sv
1703494399,6f30d4a8461051d69607a7824c4af8d7,PennController,18,0,experiment,NULL,PennController,18,_Trial_,End,1703494359328,undefined,NULL
1703494399,6f30d4a8461051d69607a7824c4af8d7,PennController,4,0,experiment,NULL,PennController,4,_Trial_,Start,1703494359334,undefined,NULL
1703494399,6f30d4a8461051d69607a7824c4af8d7,PennController,4,0,experiment,NULL,PennController,4,_Header_,Start,1703494359334,undefined,NULL
1703494399,6f30d4a8461051d69607a7824c4af8d7,PennController,4,0,experiment,NULL,PennController,4,_Header_,End,1703494359334,undefined,NULL
1703494399,6f30d4a8461051d69607a7824c4af8d7,PennController,4,0,experiment,NULL,Button,Далее,Click,Click,1703494362962,undefined,NULL
1703494399,6f30d4a8461051d69607a7824c4af8d7,PennController,4,0,experiment,NULL,Selector,answer,Selection,sent_vs,1703494370527,undefined,sent_vs;sent_sv
1703494399,6f30d4a8461051d69607a7824c4af8d7,PennController,4,0,experiment,NULL,PennController,4,_Trial_,End,1703494370533,undefined,NULL
1703494399,6f30d4a8461051d69607a7824c4af8d7,PennController,8,0,experiment,NULL,PennController,8,_Trial_,Start,1703494370537,undefined,NULL
1703494399,6f30d4a8461051d69607a7824c4af8d7,PennController,8,0,experiment,NULL,PennController,8,_Header_,Start,1703494370537,undefined,NULL
1703494399,6f30d4a8461051d69607a7824c4af8d7,PennController,8,0,experiment,NULL,PennController,8,_Header_,End,1703494370538,undefined,NULL
1703494399,6f30d4a8461051d69607a7824c4af8d7,PennController,8,0,experiment,NULL,Button,Далее,Click,Click,1703494373206,undefined,NULL
1703494399,6f30d4a8461051d69607a7824c4af8d7,PennController,8,0,experiment,NULL,Selector,answer,Selection,sent_sv,1703494378947,undefined,sent_vs;sent_sv
1703494399,6f30d4a8461051d69607a7824c4af8d7,PennController,8,0,experiment,NULL,PennController,8,_Trial_,End,1703494378952,undefined,NULL
1703494399,6f30d4a8461051d69607a7824c4af8d7,PennController,13,0,experiment,NULL,PennController,13,_Trial_,Start,1703494378958,undefined,NULL
1703494399,6f30d4a8461051d69607a7824c4af8d7,PennController,13,0,experiment,NULL,PennController,13,_Header_,Start,1703494378958,undefined,NULL
1703494399,6f30d4a8461051d69607a7824c4af8d7,PennController,13,0,experiment,NULL,PennController,13,_Header_,End,1703494378958,undefined,NULL
1703494399,6f30d4a8461051d69607a7824c4af8d7,PennController,13,0,experiment,NULL,Button,Далее,Click,Click,1703494384266,undefined,NULL
1703494399,6f30d4a8461051d69607a7824c4af8d7,PennController,13,0,experiment,NULL,Selector,answer,Selection,sent_vs,1703494397993,undefined,sent_vs;sent_sv
1703494399,6f30d4a8461051d69607a7824c4af8d7,PennController,13,0,experiment,NULL,PennController,13,_Trial_,End,1703494397998,undefined,NULL
#
# Results on Mon, 25 Dec 2023 09:00:56 GMT
# USER AGENT: Mozilla/5.0 (Linux; U; Android 13; ru-ru; Redmi Note 11 Build/TKQ1.221114.001) AppleWebKit/537.36 (KHTML, like Gecko) Version/4.0 Chrome/112.0.5615.136 Mobile Safari/537.36 XiaoMi/MiuiBrowser/14.1.1-gn
# Design number was non-random = 2
#
# Columns below this comment are as follows:
# 1. Results reception time.
# 2. MD5 hash of participant's IP address.
# 3. Controller name.
# 4. Order number of item.
# 5. Inner element number.
# 6. Label.
# 7. Latin Square Group.
# 8. PennElementType.
# 9. PennElementName.
# 10. Parameter.
# 11. Value.
# 12. EventTime.
# 13. id.
# 14. Comments.
1703494856,da059f904580d7c0322b1ada16996c05,PennController,1,0,instructions,NULL,PennController,0,_Trial_,Start,1703493684602,undefined,NULL
1703494856,da059f904580d7c0322b1ada16996c05,PennController,1,0,instructions,NULL,PennController,0,_Header_,Start,1703493684602,undefined,NULL
1703494856,da059f904580d7c0322b1ada16996c05,PennController,1,0,instructions,NULL,PennController,0,_Header_,End,1703493684604,undefined,NULL
1703494856,da059f904580d7c0322b1ada16996c05,PennController,1,0,instructions,NULL,TextInput,age,Final,71,1703493716641,undefined,NULL
1703494856,da059f904580d7c0322b1ada16996c05,PennController,1,0,instructions,NULL,Scale,linguist,Choice,нет,1703493708146,undefined,NULL
1703494856,da059f904580d7c0322b1ada16996c05,PennController,1,0,instructions,NULL,PennController,0,_Trial_,End,1703493716649,undefined,NULL
1703494856,da059f904580d7c0322b1ada16996c05,PennController,15,0,experiment,NULL,PennController,15,_Trial_,Start,1703493716678,undefined,NULL
1703494856,da059f904580d7c0322b1ada16996c05,PennController,15,0,experiment,NULL,PennController,15,_Header_,Start,1703493716678,undefined,NULL
1703494856,da059f904580d7c0322b1ada16996c05,PennController,15,0,experiment,NULL,PennController,15,_Header_,End,1703493716680,undefined,NULL
1703494856,da059f904580d7c0322b1ada16996c05,PennController,15,0,experiment,NULL,Button,Далее,Click,Click,1703493723801,undefined,NULL
1703494856,da059f904580d7c0322b1ada16996c05,PennController,15,0,experiment,NULL,Selector,answer,Selection,sent_sv,1703493749534,undefined,sent_vs;sent_sv
1703494856,da059f904580d7c0322b1ada16996c05,PennController,15,0,experiment,NULL,PennController,15,_Trial_,End,1703493749560,undefined,NULL
1703494856,da059f904580d7c0322b1ada16996c05,PennController,8,0,experiment,NULL,PennController,8,_Trial_,Start,1703493749570,undefined,NULL
1703494856,da059f904580d7c0322b1ada16996c05,PennController,8,0,experiment,NULL,PennController,8,_Header_,Start,1703493749571,undefined,NULL
1703494856,da059f904580d7c0322b1ada16996c05,PennController,8,0,experiment,NULL,PennController,8,_Header_,End,1703493749571,undefined,NULL
1703494856,da059f904580d7c0322b1ada16996c05,PennController,8,0,experiment,NULL,Button,Далее,Click,Click,1703493773588,undefined,NULL
1703494856,da059f904580d7c0322b1ada16996c05,PennController,8,0,experiment,NULL,Selector,answer,Selection,sent_sv,1703493787248,undefined,sent_sv;sent_vs
1703494856,da059f904580d7c0322b1ada16996c05,PennController,8,0,experiment,NULL,PennController,8,_Trial_,End,1703493787262,undefined,NULL
1703494856,da059f904580d7c0322b1ada16996c05,PennController,19,0,experiment,NULL,PennController,19,_Trial_,Start,1703493787279,undefined,NULL
1703494856,da059f904580d7c0322b1ada16996c05,PennController,19,0,experiment,NULL,PennController,19,_Header_,Start,1703493787279,undefined,NULL
1703494856,da059f904580d7c0322b1ada16996c05,PennController,19,0,experiment,NULL,PennController,19,_Header_,End,1703493787280,undefined,NULL
1703494856,da059f904580d7c0322b1ada16996c05,PennController,19,0,experiment,NULL,Button,Далее,Click,Click,1703493791131,undefined,NULL
1703494856,da059f904580d7c0322b1ada16996c05,PennController,19,0,experiment,NULL,Selector,answer,Selection,sent_sv,1703493802823,undefined,sent_vs;sent_sv
1703494856,da059f904580d7c0322b1ada16996c05,PennController,19,0,experiment,NULL,PennController,19,_Trial_,End,1703493802836,undefined,NULL
1703494856,da059f904580d7c0322b1ada16996c05,PennController,18,0,experiment,NULL,PennController,18,_Trial_,Start,1703493802847,undefined,NULL
1703494856,da059f904580d7c0322b1ada16996c05,PennController,18,0,experiment,NULL,PennController,18,_Header_,Start,1703493802847,undefined,NULL
1703494856,da059f904580d7c0322b1ada16996c05,PennController,18,0,experiment,NULL,PennController,18,_Header_,End,1703493802848,undefined,NULL
1703494856,da059f904580d7c0322b1ada16996c05,PennController,18,0,experiment,NULL,Button,Далее,Click,Click,1703493809357,undefined,NULL
1703494856,da059f904580d7c0322b1ada16996c05,PennController,18,0,experiment,NULL,Selector,answer,Selection,sent_sv,1703493834042,undefined,sent_vs;sent_sv
1703494856,da059f904580d7c0322b1ada16996c05,PennController,18,0,experiment,NULL,PennController,18,_Trial_,End,1703493834053,undefined,NULL
1703494856,da059f904580d7c0322b1ada16996c05,PennController,10,0,experiment,NULL,PennController,10,_Trial_,Start,1703493834065,undefined,NULL
1703494856,da059f904580d7c0322b1ada16996c05,PennController,10,0,experiment,NULL,PennController,10,_Header_,Start,1703493834065,undefined,NULL
1703494856,da059f904580d7c0322b1ada16996c05,PennController,10,0,experiment,NULL,PennController,10,_Header_,End,1703493834066,undefined,NULL
1703494856,da059f904580d7c0322b1ada16996c05,PennController,10,0,experiment,NULL,Button,Далее,Click,Click,1703493840349,undefined,NULL
1703494856,da059f904580d7c0322b1ada16996c05,PennController,10,0,experiment,NULL,Selector,answer,Selection,sent_sv,1703493859409,undefined,sent_sv;sent_vs
1703494856,da059f904580d7c0322b1ada16996c05,PennController,10,0,experiment,NULL,PennController,10,_Trial_,End,1703493859426,undefined,NULL
1703494856,da059f904580d7c0322b1ada16996c05,PennController,3,0,experiment,NULL,PennController,3,_Trial_,Start,1703493859443,undefined,NULL
1703494856,da059f904580d7c0322b1ada16996c05,PennController,3,0,experiment,NULL,PennController,3,_Header_,Start,1703493859443,undefined,NULL
1703494856,da059f904580d7c0322b1ada16996c05,PennController,3,0,experiment,NULL,PennController,3,_Header_,End,1703493859444,undefined,NULL
1703494856,da059f904580d7c0322b1ada16996c05,PennController,3,0,experiment,NULL,Button,Далее,Click,Click,1703493868093,undefined,NULL
1703494856,da059f904580d7c0322b1ada16996c05,PennController,3,0,experiment,NULL,Selector,answer,Selection,sent_sv,1703493901179,undefined,sent_vs;sent_sv
1703494856,da059f904580d7c0322b1ada16996c05,PennController,3,0,experiment,NULL,PennController,3,_Trial_,End,1703493901195,undefined,NULL
1703494856,da059f904580d7c0322b1ada16996c05,PennController,6,0,experiment,NULL,PennController,6,_Trial_,Start,1703493901211,undefined,NULL
1703494856,da059f904580d7c0322b1ada16996c05,PennController,6,0,experiment,NULL,PennController,6,_Header_,Start,1703493901211,undefined,NULL
1703494856,da059f904580d7c0322b1ada16996c05,PennController,6,0,experiment,NULL,PennController,6,_Header_,End,1703493901212,undefined,NULL
1703494856,da059f904580d7c0322b1ada16996c05,PennController,6,0,experiment,NULL,Button,Далее,Click,Click,1703493905333,undefined,NULL
1703494856,da059f904580d7c0322b1ada16996c05,PennController,6,0,experiment,NULL,Selector,answer,Selection,sent_vs,1703493917345,undefined,sent_sv;sent_vs
1703494856,da059f904580d7c0322b1ada16996c05,PennController,6,0,experiment,NULL,PennController,6,_Trial_,End,1703493917361,undefined,NULL
1703494856,da059f904580d7c0322b1ada16996c05,PennController,12,0,experiment,NULL,PennController,12,_Trial_,Start,1703493917378,undefined,NULL
1703494856,da059f904580d7c0322b1ada16996c05,PennController,12,0,experiment,NULL,PennController,12,_Header_,Start,1703493917378,undefined,NULL
1703494856,da059f904580d7c0322b1ada16996c05,PennController,12,0,experiment,NULL,PennController,12,_Header_,End,1703493917379,undefined,NULL
1703494856,da059f904580d7c0322b1ada16996c05,PennController,12,0,experiment,NULL,Button,Далее,Click,Click,1703493921980,undefined,NULL
1703494856,da059f904580d7c0322b1ada16996c05,PennController,12,0,experiment,NULL,Selector,answer,Selection,sent_vs,1703493950330,undefined,sent_sv;sent_vs
1703494856,da059f904580d7c0322b1ada16996c05,PennController,12,0,experiment,NULL,PennController,12,_Trial_,End,1703493950343,undefined,NULL
1703494856,da059f904580d7c0322b1ada16996c05,PennController,11,0,experiment,NULL,PennController,11,_Trial_,Start,1703493950358,undefined,NULL
1703494856,da059f904580d7c0322b1ada16996c05,PennController,11,0,experiment,NULL,PennController,11,_Header_,Start,1703493950358,undefined,NULL
1703494856,da059f904580d7c0322b1ada16996c05,PennController,11,0,experiment,NULL,PennController,11,_Header_,End,1703493950359,undefined,NULL
1703494856,da059f904580d7c0322b1ada16996c05,PennController,11,0,experiment,NULL,Button,Далее,Click,Click,1703493954225,undefined,NULL
1703494856,da059f904580d7c0322b1ada16996c05,PennController,11,0,experiment,NULL,Selector,answer,Selection,sent_sv,1703493977123,undefined,sent_vs;sent_sv
1703494856,da059f904580d7c0322b1ada16996c05,PennController,11,0,experiment,NULL,PennController,11,_Trial_,End,1703493977138,undefined,NULL
1703494856,da059f904580d7c0322b1ada16996c05,PennController,14,0,experiment,NULL,PennController,14,_PreloadFailed_,guests_0.png,1703494037802,undefined,NULL
1703494856,da059f904580d7c0322b1ada16996c05,PennController,14,0,experiment,NULL,PennController,14,_Trial_,Start,1703494037803,undefined,NULL
1703494856,da059f904580d7c0322b1ada16996c05,PennController,14,0,experiment,NULL,PennController,14,_Header_,Start,1703494037803,undefined,NULL
1703494856,da059f904580d7c0322b1ada16996c05,PennController,14,0,experiment,NULL,PennController,14,_Header_,End,1703494037804,undefined,NULL
1703494856,da059f904580d7c0322b1ada16996c05,PennController,14,0,experiment,NULL,Button,Далее,Click,Click,1703494072368,undefined,NULL
1703494856,da059f904580d7c0322b1ada16996c05,PennController,14,0,experiment,NULL,Selector,answer,Selection,sent_vs,1703494090942,undefined,sent_vs;sent_sv
1703494856,da059f904580d7c0322b1ada16996c05,PennController,14,0,experiment,NULL,PennController,14,_Trial_,End,1703494090956,undefined,NULL
1703494856,da059f904580d7c0322b1ada16996c05,PennController,13,0,experiment,NULL,PennController,13,_PreloadFailed_,bottles_0.png,1703494150973,undefined,NULL
1703494856,da059f904580d7c0322b1ada16996c05,PennController,13,0,experiment,NULL,PennController,13,_Trial_,Start,1703494150976,undefined,NULL
1703494856,da059f904580d7c0322b1ada16996c05,PennController,13,0,experiment,NULL,PennController,13,_Header_,Start,1703494150976,undefined,NULL
1703494856,da059f904580d7c0322b1ada16996c05,PennController,13,0,experiment,NULL,PennController,13,_Header_,End,1703494150977,undefined,NULL
1703494856,da059f904580d7c0322b1ada16996c05,PennController,13,0,experiment,NULL,Button,Далее,Click,Click,1703494216164,undefined,NULL
1703494856,da059f904580d7c0322b1ada16996c05,PennController,13,0,experiment,NULL,Selector,answer,Selection,sent_vs,1703494237453,undefined,sent_sv;sent_vs
1703494856,da059f904580d7c0322b1ada16996c05,PennController,13,0,experiment,NULL,PennController,13,_Trial_,End,1703494237468,undefined,NULL
1703494856,da059f904580d7c0322b1ada16996c05,PennController,17,0,experiment,NULL,PennController,17,_PreloadFailed_,books_0.png,1703494297487,undefined,NULL
1703494856,da059f904580d7c0322b1ada16996c05,PennController,17,0,experiment,NULL,PennController,17,_Trial_,Start,1703494297488,undefined,NULL
1703494856,da059f904580d7c0322b1ada16996c05,PennController,17,0,experiment,NULL,PennController,17,_Header_,Start,1703494297488,undefined,NULL
1703494856,da059f904580d7c0322b1ada16996c05,PennController,17,0,experiment,NULL,PennController,17,_Header_,End,1703494297489,undefined,NULL
1703494856,da059f904580d7c0322b1ada16996c05,PennController,17,0,experiment,NULL,Button,Далее,Click,Click,1703494299733,undefined,NULL
1703494856,da059f904580d7c0322b1ada16996c05,PennController,17,0,experiment,NULL,Selector,answer,Selection,sent_vs,1703494341341,undefined,sent_vs;sent_sv
1703494856,da059f904580d7c0322b1ada16996c05,PennController,17,0,experiment,NULL,PennController,17,_Trial_,End,1703494341353,undefined,NULL
1703494856,da059f904580d7c0322b1ada16996c05,PennController,7,0,experiment,NULL,PennController,7,_PreloadFailed_,horns_1.png,1703494401373,undefined,NULL
1703494856,da059f904580d7c0322b1ada16996c05,PennController,7,0,experiment,NULL,PennController,7,_Trial_,Start,1703494401375,undefined,NULL
1703494856,da059f904580d7c0322b1ada16996c05,PennController,7,0,experiment,NULL,PennController,7,_Header_,Start,1703494401375,undefined,NULL
1703494856,da059f904580d7c0322b1ada16996c05,PennController,7,0,experiment,NULL,PennController,7,_Header_,End,1703494401376,undefined,NULL
1703494856,da059f904580d7c0322b1ada16996c05,PennController,7,0,experiment,NULL,Button,Далее,Click,Click,1703494425067,undefined,NULL
1703494856,da059f904580d7c0322b1ada16996c05,PennController,7,0,experiment,NULL,Selector,answer,Selection,sent_sv,1703494448239,undefined,sent_sv;sent_vs
1703494856,da059f904580d7c0322b1ada16996c05,PennController,7,0,experiment,NULL,PennController,7,_Trial_,End,1703494448249,undefined,NULL
1703494856,da059f904580d7c0322b1ada16996c05,PennController,5,0,experiment,NULL,PennController,5,_PreloadFailed_,buttons_0.png,1703494508264,undefined,NULL
1703494856,da059f904580d7c0322b1ada16996c05,PennController,5,0,experiment,NULL,PennController,5,_Trial_,Start,1703494508267,undefined,NULL
1703494856,da059f904580d7c0322b1ada16996c05,PennController,5,0,experiment,NULL,PennController,5,_Header_,Start,1703494508267,undefined,NULL
1703494856,da059f904580d7c0322b1ada16996c05,PennController,5,0,experiment,NULL,PennController,5,_Header_,End,1703494508268,undefined,NULL
1703494856,da059f904580d7c0322b1ada16996c05,PennController,5,0,experiment,NULL,Button,Далее,Click,Click,1703494518146,undefined,NULL
1703494856,da059f904580d7c0322b1ada16996c05,PennController,5,0,experiment,NULL,Selector,answer,Selection,sent_vs,1703494528524,undefined,sent_vs;sent_sv
1703494856,da059f904580d7c0322b1ada16996c05,PennController,5,0,experiment,NULL,PennController,5,_Trial_,End,1703494528536,undefined,NULL
1703494856,da059f904580d7c0322b1ada16996c05,PennController,4,0,experiment,NULL,PennController,4,_PreloadFailed_,computers_1.png,1703494588552,undefined,NULL
1703494856,da059f904580d7c0322b1ada16996c05,PennController,4,0,experiment,NULL,PennController,4,_Trial_,Start,1703494588554,undefined,NULL
1703494856,da059f904580d7c0322b1ada16996c05,PennController,4,0,experiment,NULL,PennController,4,_Header_,Start,1703494588554,undefined,NULL
1703494856,da059f904580d7c0322b1ada16996c05,PennController,4,0,experiment,NULL,PennController,4,_Header_,End,1703494588555,undefined,NULL
1703494856,da059f904580d7c0322b1ada16996c05,PennController,4,0,experiment,NULL,Button,Далее,Click,Click,1703494592564,undefined,NULL
1703494856,da059f904580d7c0322b1ada16996c05,PennController,4,0,experiment,NULL,Selector,answer,Selection,sent_sv,1703494603735,undefined,sent_vs;sent_sv
1703494856,da059f904580d7c0322b1ada16996c05,PennController,4,0,experiment,NULL,PennController,4,_Trial_,End,1703494603737,undefined,NULL
1703494856,da059f904580d7c0322b1ada16996c05,PennController,2,0,experiment,NULL,PennController,2,_PreloadFailed_,bows_0.png,1703494663790,undefined,NULL
1703494856,da059f904580d7c0322b1ada16996c05,PennController,2,0,experiment,NULL,PennController,2,_Trial_,Start,1703494663792,undefined,NULL
1703494856,da059f904580d7c0322b1ada16996c05,PennController,2,0,experiment,NULL,PennController,2,_Header_,Start,1703494663792,undefined,NULL
1703494856,da059f904580d7c0322b1ada16996c05,PennController,2,0,experiment,NULL,PennController,2,_Header_,End,1703494663795,undefined,NULL
1703494856,da059f904580d7c0322b1ada16996c05,PennController,2,0,experiment,NULL,Button,Далее,Click,Click,1703494678587,undefined,NULL
1703494856,da059f904580d7c0322b1ada16996c05,PennController,2,0,experiment,NULL,Selector,answer,Selection,sent_sv,1703494689522,undefined,sent_vs;sent_sv
1703494856,da059f904580d7c0322b1ada16996c05,PennController,2,0,experiment,NULL,PennController,2,_Trial_,End,1703494689533,undefined,NULL
1703494856,da059f904580d7c0322b1ada16996c05,PennController,9,0,experiment,NULL,PennController,9,_PreloadFailed_,castles_2.png,1703494749552,undefined,NULL
1703494856,da059f904580d7c0322b1ada16996c05,PennController,9,0,experiment,NULL,PennController,9,_Trial_,Start,1703494749555,undefined,NULL
1703494856,da059f904580d7c0322b1ada16996c05,PennController,9,0,experiment,NULL,PennController,9,_Header_,Start,1703494749555,undefined,NULL
1703494856,da059f904580d7c0322b1ada16996c05,PennController,9,0,experiment,NULL,PennController,9,_Header_,End,1703494749556,undefined,NULL
1703494856,da059f904580d7c0322b1ada16996c05,PennController,9,0,experiment,NULL,Button,Далее,Click,Click,1703494761012,undefined,NULL
1703494856,da059f904580d7c0322b1ada16996c05,PennController,9,0,experiment,NULL,Selector,answer,Selection,sent_sv,1703494772950,undefined,sent_vs;sent_sv
1703494856,da059f904580d7c0322b1ada16996c05,PennController,9,0,experiment,NULL,PennController,9,_Trial_,End,1703494772960,undefined,NULL
1703494856,da059f904580d7c0322b1ada16996c05,PennController,16,0,experiment,NULL,PennController,16,_PreloadFailed_,guitar_0.png,1703494832978,undefined,NULL
1703494856,da059f904580d7c0322b1ada16996c05,PennController,16,0,experiment,NULL,PennController,16,_Trial_,Start,1703494832979,undefined,NULL
1703494856,da059f904580d7c0322b1ada16996c05,PennController,16,0,experiment,NULL,PennController,16,_Header_,Start,1703494832979,undefined,NULL
1703494856,da059f904580d7c0322b1ada16996c05,PennController,16,0,experiment,NULL,PennController,16,_Header_,End,1703494832980,undefined,NULL
1703494856,da059f904580d7c0322b1ada16996c05,PennController,16,0,experiment,NULL,Button,Далее,Click,Click,1703494836778,undefined,NULL
1703494856,da059f904580d7c0322b1ada16996c05,PennController,16,0,experiment,NULL,Selector,answer,Selection,sent_sv,1703494856028,undefined,sent_sv;sent_vs
1703494856,da059f904580d7c0322b1ada16996c05,PennController,16,0,experiment,NULL,PennController,16,_Trial_,End,1703494856037,undefined,NULL
#
# Results on Mon, 25 Dec 2023 10:51:20 GMT
# USER AGENT: Mozilla/5.0 (X11; CrOS x86_64 14541.0.0) AppleWebKit/537.36 (KHTML, like Gecko) Chrome/120.0.0.0 Safari/537.36
# Design number was non-random = 4
#
# Columns below this comment are as follows:
# 1. Results reception time.
# 2. MD5 hash of participant's IP address.
# 3. Controller name.
# 4. Order number of item.
# 5. Inner element number.
# 6. Label.
# 7. Latin Square Group.
# 8. PennElementType.
# 9. PennElementName.
# 10. Parameter.
# 11. Value.
# 12. EventTime.
# 13. id.
# 14. Comments.
1703501480,01e4e560e10a506fc06f2549c1d0d37d,PennController,1,0,instructions,NULL,PennController,0,_Trial_,Start,1703501465522,undefined,NULL
1703501480,01e4e560e10a506fc06f2549c1d0d37d,PennController,1,0,instructions,NULL,PennController,0,_Header_,Start,1703501465522,undefined,NULL
1703501480,01e4e560e10a506fc06f2549c1d0d37d,PennController,1,0,instructions,NULL,PennController,0,_Header_,End,1703501465523,undefined,NULL
1703501480,01e4e560e10a506fc06f2549c1d0d37d,PennController,1,0,instructions,NULL,TextInput,age,Final,1,1703501467463,undefined,NULL
1703501480,01e4e560e10a506fc06f2549c1d0d37d,PennController,1,0,instructions,NULL,Scale,linguist,Choice,да,1703501467059,undefined,NULL
1703501480,01e4e560e10a506fc06f2549c1d0d37d,PennController,1,0,instructions,NULL,PennController,0,_Trial_,End,1703501467463,undefined,NULL
1703501480,01e4e560e10a506fc06f2549c1d0d37d,PennController,14,0,experiment,NULL,PennController,14,_Trial_,Start,1703501467789,undefined,NULL
1703501480,01e4e560e10a506fc06f2549c1d0d37d,PennController,14,0,experiment,NULL,PennController,14,_Header_,Start,1703501467789,undefined,NULL
1703501480,01e4e560e10a506fc06f2549c1d0d37d,PennController,14,0,experiment,NULL,PennController,14,_Header_,End,1703501467789,undefined,NULL
1703501480,01e4e560e10a506fc06f2549c1d0d37d,PennController,14,0,experiment,NULL,Button,Далее,Click,Click,1703501469087,undefined,NULL
1703501480,01e4e560e10a506fc06f2549c1d0d37d,PennController,14,0,experiment,NULL,Selector,answer,Selection,sent_sv,1703501469251,undefined,sent_sv;sent_vs
1703501480,01e4e560e10a506fc06f2549c1d0d37d,PennController,14,0,experiment,NULL,PennController,14,_Trial_,End,1703501469253,undefined,NULL
1703501480,01e4e560e10a506fc06f2549c1d0d37d,PennController,11,0,experiment,NULL,PennController,11,_Trial_,Start,1703501469255,undefined,NULL
1703501480,01e4e560e10a506fc06f2549c1d0d37d,PennController,11,0,experiment,NULL,PennController,11,_Header_,Start,1703501469255,undefined,NULL
1703501480,01e4e560e10a506fc06f2549c1d0d37d,PennController,11,0,experiment,NULL,PennController,11,_Header_,End,1703501469255,undefined,NULL
1703501480,01e4e560e10a506fc06f2549c1d0d37d,PennController,11,0,experiment,NULL,Button,Далее,Click,Click,1703501469928,undefined,NULL
1703501480,01e4e560e10a506fc06f2549c1d0d37d,PennController,11,0,experiment,NULL,Selector,answer,Selection,sent_vs,1703501469986,undefined,sent_vs;sent_sv
1703501480,01e4e560e10a506fc06f2549c1d0d37d,PennController,11,0,experiment,NULL,PennController,11,_Trial_,End,1703501469988,undefined,NULL
1703501480,01e4e560e10a506fc06f2549c1d0d37d,PennController,5,0,experiment,NULL,PennController,5,_Trial_,Start,1703501469991,undefined,NULL
1703501480,01e4e560e10a506fc06f2549c1d0d37d,PennController,5,0,experiment,NULL,PennController,5,_Header_,Start,1703501469991,undefined,NULL
1703501480,01e4e560e10a506fc06f2549c1d0d37d,PennController,5,0,experiment,NULL,PennController,5,_Header_,End,1703501469991,undefined,NULL
1703501480,01e4e560e10a506fc06f2549c1d0d37d,PennController,5,0,experiment,NULL,Button,Далее,Click,Click,1703501470575,undefined,NULL
1703501480,01e4e560e10a506fc06f2549c1d0d37d,PennController,5,0,experiment,NULL,Selector,answer,Selection,sent_sv,1703501470610,undefined,sent_sv;sent_vs
1703501480,01e4e560e10a506fc06f2549c1d0d37d,PennController,5,0,experiment,NULL,PennController,5,_Trial_,End,1703501470612,undefined,NULL
1703501480,01e4e560e10a506fc06f2549c1d0d37d,PennController,16,0,experiment,NULL,PennController,16,_Trial_,Start,1703501470614,undefined,NULL
1703501480,01e4e560e10a506fc06f2549c1d0d37d,PennController,16,0,experiment,NULL,PennController,16,_Header_,Start,1703501470614,undefined,NULL
1703501480,01e4e560e10a506fc06f2549c1d0d37d,PennController,16,0,experiment,NULL,PennController,16,_Header_,End,1703501470614,undefined,NULL
1703501480,01e4e560e10a506fc06f2549c1d0d37d,PennController,16,0,experiment,NULL,Button,Далее,Click,Click,1703501471136,undefined,NULL
1703501480,01e4e560e10a506fc06f2549c1d0d37d,PennController,16,0,experiment,NULL,Selector,answer,Selection,sent_sv,1703501471203,undefined,sent_sv;sent_vs
1703501480,01e4e560e10a506fc06f2549c1d0d37d,PennController,16,0,experiment,NULL,PennController,16,_Trial_,End,1703501471204,undefined,NULL
1703501480,01e4e560e10a506fc06f2549c1d0d37d,PennController,6,0,experiment,NULL,PennController,6,_Trial_,Start,1703501471204,undefined,NULL
1703501480,01e4e560e10a506fc06f2549c1d0d37d,PennController,6,0,experiment,NULL,PennController,6,_Header_,Start,1703501471204,undefined,NULL
1703501480,01e4e560e10a506fc06f2549c1d0d37d,PennController,6,0,experiment,NULL,PennController,6,_Header_,End,1703501471204,undefined,NULL
1703501480,01e4e560e10a506fc06f2549c1d0d37d,PennController,6,0,experiment,NULL,Button,Далее,Click,Click,1703501471686,undefined,NULL
1703501480,01e4e560e10a506fc06f2549c1d0d37d,PennController,6,0,experiment,NULL,Selector,answer,Selection,sent_sv,1703501471789,undefined,sent_sv;sent_vs
1703501480,01e4e560e10a506fc06f2549c1d0d37d,PennController,6,0,experiment,NULL,PennController,6,_Trial_,End,1703501471791,undefined,NULL
1703501480,01e4e560e10a506fc06f2549c1d0d37d,PennController,7,0,experiment,NULL,PennController,7,_Trial_,Start,1703501471793,undefined,NULL
1703501480,01e4e560e10a506fc06f2549c1d0d37d,PennController,7,0,experiment,NULL,PennController,7,_Header_,Start,1703501471793,undefined,NULL
1703501480,01e4e560e10a506fc06f2549c1d0d37d,PennController,7,0,experiment,NULL,PennController,7,_Header_,End,1703501471793,undefined,NULL
1703501480,01e4e560e10a506fc06f2549c1d0d37d,PennController,7,0,experiment,NULL,Button,Далее,Click,Click,1703501472279,undefined,NULL
1703501480,01e4e560e10a506fc06f2549c1d0d37d,PennController,7,0,experiment,NULL,Selector,answer,Selection,sent_vs,1703501472407,undefined,sent_vs;sent_sv
1703501480,01e4e560e10a506fc06f2549c1d0d37d,PennController,7,0,experiment,NULL,PennController,7,_Trial_,End,1703501472409,undefined,NULL
1703501480,01e4e560e10a506fc06f2549c1d0d37d,PennController,8,0,experiment,NULL,PennController,8,_Trial_,Start,1703501472410,undefined,NULL
1703501480,01e4e560e10a506fc06f2549c1d0d37d,PennController,8,0,experiment,NULL,PennController,8,_Header_,Start,1703501472410,undefined,NULL
1703501480,01e4e560e10a506fc06f2549c1d0d37d,PennController,8,0,experiment,NULL,PennController,8,_Header_,End,1703501472410,undefined,NULL
1703501480,01e4e560e10a506fc06f2549c1d0d37d,PennController,8,0,experiment,NULL,Button,Далее,Click,Click,1703501472892,undefined,NULL
1703501480,01e4e560e10a506fc06f2549c1d0d37d,PennController,8,0,experiment,NULL,Selector,answer,Selection,sent_vs,1703501472994,undefined,sent_vs;sent_sv
1703501480,01e4e560e10a506fc06f2549c1d0d37d,PennController,8,0,experiment,NULL,PennController,8,_Trial_,End,1703501472996,undefined,NULL
1703501480,01e4e560e10a506fc06f2549c1d0d37d,PennController,2,0,experiment,NULL,PennController,2,_Trial_,Start,1703501472997,undefined,NULL
1703501480,01e4e560e10a506fc06f2549c1d0d37d,PennController,2,0,experiment,NULL,PennController,2,_Header_,Start,1703501472997,undefined,NULL
1703501480,01e4e560e10a506fc06f2549c1d0d37d,PennController,2,0,experiment,NULL,PennController,2,_Header_,End,1703501472997,undefined,NULL
1703501480,01e4e560e10a506fc06f2549c1d0d37d,PennController,2,0,experiment,NULL,Button,Далее,Click,Click,1703501473503,undefined,NULL
1703501480,01e4e560e10a506fc06f2549c1d0d37d,PennController,2,0,experiment,NULL,Selector,answer,Selection,sent_vs,1703501473570,undefined,sent_vs;sent_sv
1703501480,01e4e560e10a506fc06f2549c1d0d37d,PennController,2,0,experiment,NULL,PennController,2,_Trial_,End,1703501473570,undefined,NULL
1703501480,01e4e560e10a506fc06f2549c1d0d37d,PennController,9,0,experiment,NULL,PennController,9,_Trial_,Start,1703501473571,undefined,NULL
1703501480,01e4e560e10a506fc06f2549c1d0d37d,PennController,9,0,experiment,NULL,PennController,9,_Header_,Start,1703501473571,undefined,NULL
1703501480,01e4e560e10a506fc06f2549c1d0d37d,PennController,9,0,experiment,NULL,PennController,9,_Header_,End,1703501473571,undefined,NULL
1703501480,01e4e560e10a506fc06f2549c1d0d37d,PennController,9,0,experiment,NULL,Button,Далее,Click,Click,1703501474066,undefined,NULL
1703501480,01e4e560e10a506fc06f2549c1d0d37d,PennController,9,0,experiment,NULL,Selector,answer,Selection,sent_sv,1703501474172,undefined,sent_sv;sent_vs
1703501480,01e4e560e10a506fc06f2549c1d0d37d,PennController,9,0,experiment,NULL,PennController,9,_Trial_,End,1703501474174,undefined,NULL
1703501480,01e4e560e10a506fc06f2549c1d0d37d,PennController,17,0,experiment,NULL,PennController,17,_Trial_,Start,1703501474175,undefined,NULL
1703501480,01e4e560e10a506fc06f2549c1d0d37d,PennController,17,0,experiment,NULL,PennController,17,_Header_,Start,1703501474175,undefined,NULL
1703501480,01e4e560e10a506fc06f2549c1d0d37d,PennController,17,0,experiment,NULL,PennController,17,_Header_,End,1703501474175,undefined,NULL
1703501480,01e4e560e10a506fc06f2549c1d0d37d,PennController,17,0,experiment,NULL,Button,Далее,Click,Click,1703501474660,undefined,NULL
1703501480,01e4e560e10a506fc06f2549c1d0d37d,PennController,17,0,experiment,NULL,Selector,answer,Selection,sent_sv,1703501474738,undefined,sent_sv;sent_vs
1703501480,01e4e560e10a506fc06f2549c1d0d37d,PennController,17,0,experiment,NULL,PennController,17,_Trial_,End,1703501474740,undefined,NULL
1703501480,01e4e560e10a506fc06f2549c1d0d37d,PennController,4,0,experiment,NULL,PennController,4,_Trial_,Start,1703501474741,undefined,NULL
1703501480,01e4e560e10a506fc06f2549c1d0d37d,PennController,4,0,experiment,NULL,PennController,4,_Header_,Start,1703501474741,undefined,NULL
1703501480,01e4e560e10a506fc06f2549c1d0d37d,PennController,4,0,experiment,NULL,PennController,4,_Header_,End,1703501474741,undefined,NULL
1703501480,01e4e560e10a506fc06f2549c1d0d37d,PennController,4,0,experiment,NULL,Button,Далее,Click,Click,1703501475195,undefined,NULL
1703501480,01e4e560e10a506fc06f2549c1d0d37d,PennController,4,0,experiment,NULL,Selector,answer,Selection,sent_sv,1703501475287,undefined,sent_sv;sent_vs
1703501480,01e4e560e10a506fc06f2549c1d0d37d,PennController,4,0,experiment,NULL,PennController,4,_Trial_,End,1703501475289,undefined,NULL
1703501480,01e4e560e10a506fc06f2549c1d0d37d,PennController,15,0,experiment,NULL,PennController,15,_Trial_,Start,1703501475290,undefined,NULL
1703501480,01e4e560e10a506fc06f2549c1d0d37d,PennController,15,0,experiment,NULL,PennController,15,_Header_,Start,1703501475290,undefined,NULL
1703501480,01e4e560e10a506fc06f2549c1d0d37d,PennController,15,0,experiment,NULL,PennController,15,_Header_,End,1703501475290,undefined,NULL
1703501480,01e4e560e10a506fc06f2549c1d0d37d,PennController,15,0,experiment,NULL,Button,Далее,Click,Click,1703501475752,undefined,NULL
1703501480,01e4e560e10a506fc06f2549c1d0d37d,PennController,15,0,experiment,NULL,Selector,answer,Selection,sent_sv,1703501475842,undefined,sent_sv;sent_vs
1703501480,01e4e560e10a506fc06f2549c1d0d37d,PennController,15,0,experiment,NULL,PennController,15,_Trial_,End,1703501475844,undefined,NULL
1703501480,01e4e560e10a506fc06f2549c1d0d37d,PennController,10,0,experiment,NULL,PennController,10,_Trial_,Start,1703501475845,undefined,NULL
1703501480,01e4e560e10a506fc06f2549c1d0d37d,PennController,10,0,experiment,NULL,PennController,10,_Header_,Start,1703501475845,undefined,NULL
1703501480,01e4e560e10a506fc06f2549c1d0d37d,PennController,10,0,experiment,NULL,PennController,10,_Header_,End,1703501475845,undefined,NULL
1703501480,01e4e560e10a506fc06f2549c1d0d37d,PennController,10,0,experiment,NULL,Button,Далее,Click,Click,1703501476304,undefined,NULL
1703501480,01e4e560e10a506fc06f2549c1d0d37d,PennController,10,0,experiment,NULL,Selector,answer,Selection,sent_sv,1703501476400,undefined,sent_sv;sent_vs
1703501480,01e4e560e10a506fc06f2549c1d0d37d,PennController,10,0,experiment,NULL,PennController,10,_Trial_,End,1703501476401,undefined,NULL
1703501480,01e4e560e10a506fc06f2549c1d0d37d,PennController,18,0,experiment,NULL,PennController,18,_Trial_,Start,1703501476403,undefined,NULL
1703501480,01e4e560e10a506fc06f2549c1d0d37d,PennController,18,0,experiment,NULL,PennController,18,_Header_,Start,1703501476403,undefined,NULL
1703501480,01e4e560e10a506fc06f2549c1d0d37d,PennController,18,0,experiment,NULL,PennController,18,_Header_,End,1703501476403,undefined,NULL
1703501480,01e4e560e10a506fc06f2549c1d0d37d,PennController,18,0,experiment,NULL,Button,Далее,Click,Click,1703501476876,undefined,NULL
1703501480,01e4e560e10a506fc06f2549c1d0d37d,PennController,18,0,experiment,NULL,Selector,answer,Selection,sent_sv,1703501476931,undefined,sent_sv;sent_vs
1703501480,01e4e560e10a506fc06f2549c1d0d37d,PennController,18,0,experiment,NULL,PennController,18,_Trial_,End,1703501476932,undefined,NULL
1703501480,01e4e560e10a506fc06f2549c1d0d37d,PennController,3,0,experiment,NULL,PennController,3,_Trial_,Start,1703501476933,undefined,NULL
1703501480,01e4e560e10a506fc06f2549c1d0d37d,PennController,3,0,experiment,NULL,PennController,3,_Header_,Start,1703501476933,undefined,NULL
1703501480,01e4e560e10a506fc06f2549c1d0d37d,PennController,3,0,experiment,NULL,PennController,3,_Header_,End,1703501476933,undefined,NULL
1703501480,01e4e560e10a506fc06f2549c1d0d37d,PennController,3,0,experiment,NULL,Button,Далее,Click,Click,1703501477422,undefined,NULL
1703501480,01e4e560e10a506fc06f2549c1d0d37d,PennController,3,0,experiment,NULL,Selector,answer,Selection,sent_vs,1703501477483,undefined,sent_vs;sent_sv
1703501480,01e4e560e10a506fc06f2549c1d0d37d,PennController,3,0,experiment,NULL,PennController,3,_Trial_,End,1703501477484,undefined,NULL
1703501480,01e4e560e10a506fc06f2549c1d0d37d,PennController,19,0,experiment,NULL,PennController,19,_Trial_,Start,1703501477485,undefined,NULL
1703501480,01e4e560e10a506fc06f2549c1d0d37d,PennController,19,0,experiment,NULL,PennController,19,_Header_,Start,1703501477485,undefined,NULL
1703501480,01e4e560e10a506fc06f2549c1d0d37d,PennController,19,0,experiment,NULL,PennController,19,_Header_,End,1703501477485,undefined,NULL
1703501480,01e4e560e10a506fc06f2549c1d0d37d,PennController,19,0,experiment,NULL,Button,Далее,Click,Click,1703501478075,undefined,NULL
1703501480,01e4e560e10a506fc06f2549c1d0d37d,PennController,19,0,experiment,NULL,Selector,answer,Selection,sent_vs,1703501478136,undefined,sent_vs;sent_sv
1703501480,01e4e560e10a506fc06f2549c1d0d37d,PennController,19,0,experiment,NULL,PennController,19,_Trial_,End,1703501478137,undefined,NULL
1703501480,01e4e560e10a506fc06f2549c1d0d37d,PennController,12,0,experiment,NULL,PennController,12,_Trial_,Start,1703501478138,undefined,NULL
1703501480,01e4e560e10a506fc06f2549c1d0d37d,PennController,12,0,experiment,NULL,PennController,12,_Header_,Start,1703501478138,undefined,NULL
1703501480,01e4e560e10a506fc06f2549c1d0d37d,PennController,12,0,experiment,NULL,PennController,12,_Header_,End,1703501478138,undefined,NULL
1703501480,01e4e560e10a506fc06f2549c1d0d37d,PennController,12,0,experiment,NULL,Button,Далее,Click,Click,1703501478662,undefined,NULL
1703501480,01e4e560e10a506fc06f2549c1d0d37d,PennController,12,0,experiment,NULL,Selector,answer,Selection,sent_vs,1703501478707,undefined,sent_vs;sent_sv
1703501480,01e4e560e10a506fc06f2549c1d0d37d,PennController,12,0,experiment,NULL,PennController,12,_Trial_,End,1703501478709,undefined,NULL
1703501480,01e4e560e10a506fc06f2549c1d0d37d,PennController,13,0,experiment,NULL,PennController,13,_Trial_,Start,1703501478710,undefined,NULL
1703501480,01e4e560e10a506fc06f2549c1d0d37d,PennController,13,0,experiment,NULL,PennController,13,_Header_,Start,1703501478710,undefined,NULL
1703501480,01e4e560e10a506fc06f2549c1d0d37d,PennController,13,0,experiment,NULL,PennController,13,_Header_,End,1703501478710,undefined,NULL
1703501480,01e4e560e10a506fc06f2549c1d0d37d,PennController,13,0,experiment,NULL,Button,Далее,Click,Click,1703501479216,undefined,NULL
1703501480,01e4e560e10a506fc06f2549c1d0d37d,PennController,13,0,experiment,NULL,Selector,answer,Selection,sent_sv,1703501479305,undefined,sent_sv;sent_vs
1703501480,01e4e560e10a506fc06f2549c1d0d37d,PennController,13,0,experiment,NULL,PennController,13,_Trial_,End,1703501479307,undefined,NULL
#
# Results on Mon, 25 Dec 2023 11:01:50 GMT
# USER AGENT: Mozilla/5.0 (Windows NT 10.0; Win64; x64) AppleWebKit/537.36 (KHTML, like Gecko) Chrome/120.0.0.0 Safari/537.36
# Design number was non-random = 5
#
# Columns below this comment are as follows:
# 1. Results reception time.
# 2. MD5 hash of participant's IP address.
# 3. Controller name.
# 4. Order number of item.
# 5. Inner element number.
# 6. Label.
# 7. Latin Square Group.
# 8. PennElementType.
# 9. PennElementName.
# 10. Parameter.
# 11. Value.
# 12. EventTime.
# 13. id.
# 14. Comments.
1703502110,7066e7cf866c1494ebab73e50fc4f51b,PennController,1,0,instructions,NULL,PennController,0,_Trial_,Start,1703501826870,undefined,NULL
1703502110,7066e7cf866c1494ebab73e50fc4f51b,PennController,1,0,instructions,NULL,PennController,0,_Header_,Start,1703501826870,undefined,NULL
1703502110,7066e7cf866c1494ebab73e50fc4f51b,PennController,1,0,instructions,NULL,PennController,0,_Header_,End,1703501826871,undefined,NULL
1703502110,7066e7cf866c1494ebab73e50fc4f51b,PennController,1,0,instructions,NULL,TextInput,age,Final,47,1703501845045,undefined,NULL
1703502110,7066e7cf866c1494ebab73e50fc4f51b,PennController,1,0,instructions,NULL,Scale,linguist,Choice,да,1703501844030,undefined,NULL
1703502110,7066e7cf866c1494ebab73e50fc4f51b,PennController,1,0,instructions,NULL,PennController,0,_Trial_,End,1703501845045,undefined,NULL
1703502110,7066e7cf866c1494ebab73e50fc4f51b,PennController,18,0,experiment,NULL,PennController,18,_Trial_,Start,1703501845047,undefined,NULL
1703502110,7066e7cf866c1494ebab73e50fc4f51b,PennController,18,0,experiment,NULL,PennController,18,_Header_,Start,1703501845047,undefined,NULL
1703502110,7066e7cf866c1494ebab73e50fc4f51b,PennController,18,0,experiment,NULL,PennController,18,_Header_,End,1703501845047,undefined,NULL
1703502110,7066e7cf866c1494ebab73e50fc4f51b,PennController,18,0,experiment,NULL,Button,Далее,Click,Click,1703501848126,undefined,NULL
1703502110,7066e7cf866c1494ebab73e50fc4f51b,PennController,18,0,experiment,NULL,Selector,answer,Selection,sent_vs,1703501861470,undefined,sent_sv;sent_vs
1703502110,7066e7cf866c1494ebab73e50fc4f51b,PennController,18,0,experiment,NULL,PennController,18,_Trial_,End,1703501861471,undefined,NULL
1703502110,7066e7cf866c1494ebab73e50fc4f51b,PennController,19,0,experiment,NULL,PennController,19,_Trial_,Start,1703501861472,undefined,NULL
1703502110,7066e7cf866c1494ebab73e50fc4f51b,PennController,19,0,experiment,NULL,PennController,19,_Header_,Start,1703501861472,undefined,NULL
1703502110,7066e7cf866c1494ebab73e50fc4f51b,PennController,19,0,experiment,NULL,PennController,19,_Header_,End,1703501861472,undefined,NULL
1703502110,7066e7cf866c1494ebab73e50fc4f51b,PennController,19,0,experiment,NULL,Button,Далее,Click,Click,1703501864409,undefined,NULL
1703502110,7066e7cf866c1494ebab73e50fc4f51b,PennController,19,0,experiment,NULL,Selector,answer,Selection,sent_vs,1703501877407,undefined,sent_sv;sent_vs
1703502110,7066e7cf866c1494ebab73e50fc4f51b,PennController,19,0,experiment,NULL,PennController,19,_Trial_,End,1703501877407,undefined,NULL
1703502110,7066e7cf866c1494ebab73e50fc4f51b,PennController,2,0,experiment,NULL,PennController,2,_Trial_,Start,1703501877408,undefined,NULL
1703502110,7066e7cf866c1494ebab73e50fc4f51b,PennController,2,0,experiment,NULL,PennController,2,_Header_,Start,1703501877408,undefined,NULL
1703502110,7066e7cf866c1494ebab73e50fc4f51b,PennController,2,0,experiment,NULL,PennController,2,_Header_,End,1703501877408,undefined,NULL
1703502110,7066e7cf866c1494ebab73e50fc4f51b,PennController,2,0,experiment,NULL,Button,Далее,Click,Click,1703501879777,undefined,NULL
1703502110,7066e7cf866c1494ebab73e50fc4f51b,PennController,2,0,experiment,NULL,Selector,answer,Selection,sent_sv,1703501893803,undefined,sent_sv;sent_vs
1703502110,7066e7cf866c1494ebab73e50fc4f51b,PennController,2,0,experiment,NULL,PennController,2,_Trial_,End,1703501893804,undefined,NULL
1703502110,7066e7cf866c1494ebab73e50fc4f51b,PennController,6,0,experiment,NULL,PennController,6,_Trial_,Start,1703501893804,undefined,NULL
1703502110,7066e7cf866c1494ebab73e50fc4f51b,PennController,6,0,experiment,NULL,PennController,6,_Header_,Start,1703501893804,undefined,NULL
1703502110,7066e7cf866c1494ebab73e50fc4f51b,PennController,6,0,experiment,NULL,PennController,6,_Header_,End,1703501893804,undefined,NULL
1703502110,7066e7cf866c1494ebab73e50fc4f51b,PennController,6,0,experiment,NULL,Button,Далее,Click,Click,1703501898663,undefined,NULL
1703502110,7066e7cf866c1494ebab73e50fc4f51b,PennController,6,0,experiment,NULL,Selector,answer,Selection,sent_sv,1703501905518,undefined,sent_vs;sent_sv
1703502110,7066e7cf866c1494ebab73e50fc4f51b,PennController,6,0,experiment,NULL,PennController,6,_Trial_,End,1703501905519,undefined,NULL
1703502110,7066e7cf866c1494ebab73e50fc4f51b,PennController,8,0,experiment,NULL,PennController,8,_Trial_,Start,1703501905519,undefined,NULL
1703502110,7066e7cf866c1494ebab73e50fc4f51b,PennController,8,0,experiment,NULL,PennController,8,_Header_,Start,1703501905519,undefined,NULL
1703502110,7066e7cf866c1494ebab73e50fc4f51b,PennController,8,0,experiment,NULL,PennController,8,_Header_,End,1703501905519,undefined,NULL
1703502110,7066e7cf866c1494ebab73e50fc4f51b,PennController,8,0,experiment,NULL,Button,Далее,Click,Click,1703501908008,undefined,NULL
1703502110,7066e7cf866c1494ebab73e50fc4f51b,PennController,8,0,experiment,NULL,Selector,answer,Selection,sent_sv,1703501916903,undefined,sent_sv;sent_vs
1703502110,7066e7cf866c1494ebab73e50fc4f51b,PennController,8,0,experiment,NULL,PennController,8,_Trial_,End,1703501916904,undefined,NULL
1703502110,7066e7cf866c1494ebab73e50fc4f51b,PennController,9,0,experiment,NULL,PennController,9,_Trial_,Start,1703501916904,undefined,NULL
1703502110,7066e7cf866c1494ebab73e50fc4f51b,PennController,9,0,experiment,NULL,PennController,9,_Header_,Start,1703501916904,undefined,NULL
1703502110,7066e7cf866c1494ebab73e50fc4f51b,PennController,9,0,experiment,NULL,PennController,9,_Header_,End,1703501916904,undefined,NULL
1703502110,7066e7cf866c1494ebab73e50fc4f51b,PennController,9,0,experiment,NULL,Button,Далее,Click,Click,1703501919745,undefined,NULL
1703502110,7066e7cf866c1494ebab73e50fc4f51b,PennController,9,0,experiment,NULL,Selector,answer,Selection,sent_vs,1703501930411,undefined,sent_sv;sent_vs
1703502110,7066e7cf866c1494ebab73e50fc4f51b,PennController,9,0,experiment,NULL,PennController,9,_Trial_,End,1703501930412,undefined,NULL
1703502110,7066e7cf866c1494ebab73e50fc4f51b,PennController,3,0,experiment,NULL,PennController,3,_Trial_,Start,1703501930413,undefined,NULL
1703502110,7066e7cf866c1494ebab73e50fc4f51b,PennController,3,0,experiment,NULL,PennController,3,_Header_,Start,1703501930413,undefined,NULL
1703502110,7066e7cf866c1494ebab73e50fc4f51b,PennController,3,0,experiment,NULL,PennController,3,_Header_,End,1703501930413,undefined,NULL
1703502110,7066e7cf866c1494ebab73e50fc4f51b,PennController,3,0,experiment,NULL,Button,Далее,Click,Click,1703501932607,undefined,NULL
1703502110,7066e7cf866c1494ebab73e50fc4f51b,PennController,3,0,experiment,NULL,Selector,answer,Selection,sent_vs,1703501938460,undefined,sent_vs;sent_sv
1703502110,7066e7cf866c1494ebab73e50fc4f51b,PennController,3,0,experiment,NULL,PennController,3,_Trial_,End,1703501938460,undefined,NULL
1703502110,7066e7cf866c1494ebab73e50fc4f51b,PennController,17,0,experiment,NULL,PennController,17,_Trial_,Start,1703501938461,undefined,NULL
1703502110,7066e7cf866c1494ebab73e50fc4f51b,PennController,17,0,experiment,NULL,PennController,17,_Header_,Start,1703501938461,undefined,NULL
1703502110,7066e7cf866c1494ebab73e50fc4f51b,PennController,17,0,experiment,NULL,PennController,17,_Header_,End,1703501938461,undefined,NULL
1703502110,7066e7cf866c1494ebab73e50fc4f51b,PennController,17,0,experiment,NULL,Button,Далее,Click,Click,1703501939563,undefined,NULL
1703502110,7066e7cf866c1494ebab73e50fc4f51b,PennController,17,0,experiment,NULL,Selector,answer,Selection,sent_vs,1703501959491,undefined,sent_sv;sent_vs
1703502110,7066e7cf866c1494ebab73e50fc4f51b,PennController,17,0,experiment,NULL,PennController,17,_Trial_,End,1703501959491,undefined,NULL
1703502110,7066e7cf866c1494ebab73e50fc4f51b,PennController,10,0,experiment,NULL,PennController,10,_Trial_,Start,1703501959492,undefined,NULL
1703502110,7066e7cf866c1494ebab73e50fc4f51b,PennController,10,0,experiment,NULL,PennController,10,_Header_,Start,1703501959492,undefined,NULL
1703502110,7066e7cf866c1494ebab73e50fc4f51b,PennController,10,0,experiment,NULL,PennController,10,_Header_,End,1703501959492,undefined,NULL
1703502110,7066e7cf866c1494ebab73e50fc4f51b,PennController,10,0,experiment,NULL,Button,Далее,Click,Click,1703501965655,undefined,NULL
1703502110,7066e7cf866c1494ebab73e50fc4f51b,PennController,10,0,experiment,NULL,Selector,answer,Selection,sent_vs,1703501975271,undefined,sent_sv;sent_vs
1703502110,7066e7cf866c1494ebab73e50fc4f51b,PennController,10,0,experiment,NULL,PennController,10,_Trial_,End,1703501975272,undefined,NULL
1703502110,7066e7cf866c1494ebab73e50fc4f51b,PennController,4,0,experiment,NULL,PennController,4,_Trial_,Start,1703501975272,undefined,NULL
1703502110,7066e7cf866c1494ebab73e50fc4f51b,PennController,4,0,experiment,NULL,PennController,4,_Header_,Start,1703501975272,undefined,NULL
1703502110,7066e7cf866c1494ebab73e50fc4f51b,PennController,4,0,experiment,NULL,PennController,4,_Header_,End,1703501975273,undefined,NULL
1703502110,7066e7cf866c1494ebab73e50fc4f51b,PennController,4,0,experiment,NULL,Button,Далее,Click,Click,1703501979694,undefined,NULL
1703502110,7066e7cf866c1494ebab73e50fc4f51b,PennController,4,0,experiment,NULL,Selector,answer,Selection,sent_vs,1703501987621,undefined,sent_vs;sent_sv
1703502110,7066e7cf866c1494ebab73e50fc4f51b,PennController,4,0,experiment,NULL,PennController,4,_Trial_,End,1703501987621,undefined,NULL
1703502110,7066e7cf866c1494ebab73e50fc4f51b,PennController,15,0,experiment,NULL,PennController,15,_Trial_,Start,1703501987622,undefined,NULL
1703502110,7066e7cf866c1494ebab73e50fc4f51b,PennController,15,0,experiment,NULL,PennController,15,_Header_,Start,1703501987622,undefined,NULL
1703502110,7066e7cf866c1494ebab73e50fc4f51b,PennController,15,0,experiment,NULL,PennController,15,_Header_,End,1703501987622,undefined,NULL
1703502110,7066e7cf866c1494ebab73e50fc4f51b,PennController,15,0,experiment,NULL,Button,Далее,Click,Click,1703501990930,undefined,NULL
1703502110,7066e7cf866c1494ebab73e50fc4f51b,PennController,15,0,experiment,NULL,Selector,answer,Selection,sent_sv,1703502007904,undefined,sent_sv;sent_vs
1703502110,7066e7cf866c1494ebab73e50fc4f51b,PennController,15,0,experiment,NULL,PennController,15,_Trial_,End,1703502007905,undefined,NULL
1703502110,7066e7cf866c1494ebab73e50fc4f51b,PennController,11,0,experiment,NULL,PennController,11,_Trial_,Start,1703502007905,undefined,NULL
1703502110,7066e7cf866c1494ebab73e50fc4f51b,PennController,11,0,experiment,NULL,PennController,11,_Header_,Start,1703502007905,undefined,NULL
1703502110,7066e7cf866c1494ebab73e50fc4f51b,PennController,11,0,experiment,NULL,PennController,11,_Header_,End,1703502007905,undefined,NULL
1703502110,7066e7cf866c1494ebab73e50fc4f51b,PennController,11,0,experiment,NULL,Button,Далее,Click,Click,1703502010912,undefined,NULL
1703502110,7066e7cf866c1494ebab73e50fc4f51b,PennController,11,0,experiment,NULL,Selector,answer,Selection,sent_sv,1703502022537,undefined,sent_sv;sent_vs
1703502110,7066e7cf866c1494ebab73e50fc4f51b,PennController,11,0,experiment,NULL,PennController,11,_Trial_,End,1703502022538,undefined,NULL
1703502110,7066e7cf866c1494ebab73e50fc4f51b,PennController,5,0,experiment,NULL,PennController,5,_Trial_,Start,1703502022538,undefined,NULL
1703502110,7066e7cf866c1494ebab73e50fc4f51b,PennController,5,0,experiment,NULL,PennController,5,_Header_,Start,1703502022538,undefined,NULL
1703502110,7066e7cf866c1494ebab73e50fc4f51b,PennController,5,0,experiment,NULL,PennController,5,_Header_,End,1703502022538,undefined,NULL
1703502110,7066e7cf866c1494ebab73e50fc4f51b,PennController,5,0,experiment,NULL,Button,Далее,Click,Click,1703502024508,undefined,NULL
1703502110,7066e7cf866c1494ebab73e50fc4f51b,PennController,5,0,experiment,NULL,Selector,answer,Selection,sent_vs,1703502031357,undefined,sent_vs;sent_sv
1703502110,7066e7cf866c1494ebab73e50fc4f51b,PennController,5,0,experiment,NULL,PennController,5,_Trial_,End,1703502031357,undefined,NULL
1703502110,7066e7cf866c1494ebab73e50fc4f51b,PennController,13,0,experiment,NULL,PennController,13,_Trial_,Start,1703502031358,undefined,NULL
1703502110,7066e7cf866c1494ebab73e50fc4f51b,PennController,13,0,experiment,NULL,PennController,13,_Header_,Start,1703502031358,undefined,NULL
1703502110,7066e7cf866c1494ebab73e50fc4f51b,PennController,13,0,experiment,NULL,PennController,13,_Header_,End,1703502031358,undefined,NULL
1703502110,7066e7cf866c1494ebab73e50fc4f51b,PennController,13,0,experiment,NULL,Button,Далее,Click,Click,1703502034589,undefined,NULL
1703502110,7066e7cf866c1494ebab73e50fc4f51b,PennController,13,0,experiment,NULL,Selector,answer,Selection,sent_vs,1703502046357,undefined,sent_vs;sent_sv
1703502110,7066e7cf866c1494ebab73e50fc4f51b,PennController,13,0,experiment,NULL,PennController,13,_Trial_,End,1703502046358,undefined,NULL
1703502110,7066e7cf866c1494ebab73e50fc4f51b,PennController,16,0,experiment,NULL,PennController,16,_Trial_,Start,1703502046358,undefined,NULL
1703502110,7066e7cf866c1494ebab73e50fc4f51b,PennController,16,0,experiment,NULL,PennController,16,_Header_,Start,1703502046358,undefined,NULL
1703502110,7066e7cf866c1494ebab73e50fc4f51b,PennController,16,0,experiment,NULL,PennController,16,_Header_,End,1703502046358,undefined,NULL
1703502110,7066e7cf866c1494ebab73e50fc4f51b,PennController,16,0,experiment,NULL,Button,Далее,Click,Click,1703502051568,undefined,NULL
1703502110,7066e7cf866c1494ebab73e50fc4f51b,PennController,16,0,experiment,NULL,Selector,answer,Selection,sent_sv,1703502073718,undefined,sent_vs;sent_sv
1703502110,7066e7cf866c1494ebab73e50fc4f51b,PennController,16,0,experiment,NULL,PennController,16,_Trial_,End,1703502073719,undefined,NULL
1703502110,7066e7cf866c1494ebab73e50fc4f51b,PennController,14,0,experiment,NULL,PennController,14,_Trial_,Start,1703502073719,undefined,NULL
1703502110,7066e7cf866c1494ebab73e50fc4f51b,PennController,14,0,experiment,NULL,PennController,14,_Header_,Start,1703502073719,undefined,NULL
1703502110,7066e7cf866c1494ebab73e50fc4f51b,PennController,14,0,experiment,NULL,PennController,14,_Header_,End,1703502073719,undefined,NULL
1703502110,7066e7cf866c1494ebab73e50fc4f51b,PennController,14,0,experiment,NULL,Button,Далее,Click,Click,1703502075391,undefined,NULL
1703502110,7066e7cf866c1494ebab73e50fc4f51b,PennController,14,0,experiment,NULL,Selector,answer,Selection,sent_vs,1703502086851,undefined,sent_sv;sent_vs
1703502110,7066e7cf866c1494ebab73e50fc4f51b,PennController,14,0,experiment,NULL,PennController,14,_Trial_,End,1703502086852,undefined,NULL
1703502110,7066e7cf866c1494ebab73e50fc4f51b,PennController,7,0,experiment,NULL,PennController,7,_Trial_,Start,1703502086852,undefined,NULL
1703502110,7066e7cf866c1494ebab73e50fc4f51b,PennController,7,0,experiment,NULL,PennController,7,_Header_,Start,1703502086852,undefined,NULL
